timestamp_s,accel_x,accel_y,accel_z,gyro_x,gyro_y,gyro_z,gnss_valid,gnss_lat,gnss_lon,gnss_alt,true_pos_x,true_pos_y,true_pos_z,true_vel_x,true_vel_y,true_vel_z,is_stopped
0.0000,3.06438,0.00680,9.91669,0.00952,-0.01861,-0.00542,1,28.6139013,77.2089987,216.32,0.0012,0.0000,0.0000,0.0600,0.0000,0.0000,0
0.0200,3.00605,-0.16687,9.93745,-0.00482,0.00404,0.01122,1,28.6139019,77.2089948,215.79,0.0036,0.0000,0.0000,0.1200,0.0000,0.0000,0
0.0400,3.12743,0.14766,10.01381,-0.00487,-0.00005,-0.00267,1,28.6138935,77.2089983,216.83,0.0072,0.0000,0.0000,0.1800,0.0000,0.0000,0
0.0600,3.00170,-0.08509,9.93432,-0.00345,0.00678,0.00376,1,28.6139105,77.2090179,214.72,0.0120,0.0000,0.0000,0.2400,0.0000,0.0000,0
0.0800,3.12550,-0.05064,9.91427,0.00492,0.00030,0.00845,1,28.6138826,77.2089868,215.32,0.0180,0.0000,0.0000,0.3000,0.0000,0.0000,0
0.1000,3.09721,-0.02543,9.74514,-0.00451,0.00193,0.01403,1,28.6138890,77.2089930,215.61,0.0252,0.0000,0.0000,0.3600,0.0000,0.0000,0
0.1200,3.12335,-0.17370,9.67282,0.00720,0.00295,0.00935,1,28.6138999,77.2090108,216.37,0.0336,0.0000,0.0000,0.4200,0.0000,0.0000,0
0.1400,2.92895,0.09373,9.76467,0.00375,0.00397,0.00679,1,28.6139070,77.2089906,215.21,0.0432,0.0000,0.0000,0.4800,0.0000,0.0000,0
0.1600,3.10935,-0.14365,9.84994,0.00705,-0.01466,0.00244,1,28.6138941,77.2090069,216.52,0.0540,0.0000,0.0000,0.5400,0.0000,0.0000,0
0.1800,3.03221,0.03512,9.89245,0.01396,-0.00993,0.01275,1,28.6138957,77.2089894,216.34,0.0660,0.0000,0.0000,0.6000,0.0000,0.0000,0
0.2000,2.83484,-0.15387,9.98380,0.00669,0.00269,0.01135,1,28.6138964,77.2090128,216.70,0.0792,0.0000,0.0000,0.6600,0.0000,0.0000,0
0.2200,3.11342,-0.00269,10.03387,0.00047,-0.01321,-0.00407,1,28.6138860,77.2089889,215.35,0.0936,0.0000,0.0000,0.7200,0.0000,0.0000,0
0.2400,2.84857,-0.01271,9.91222,0.00752,-0.00642,0.00627,1,28.6139135,77.2090045,215.42,0.1092,0.0000,0.0000,0.7800,0.0000,0.0000,0
0.2600,3.20792,-0.07723,9.84902,-0.00330,-0.00590,0.00195,1,28.6138807,77.2089711,216.58,0.1260,0.0000,0.0000,0.8400,0.0000,0.0000,0
0.2800,2.84301,0.07326,9.71052,0.00210,0.00085,0.00857,1,28.6138879,77.2090028,215.88,0.1440,0.0000,0.0000,0.9000,0.0000,0.0000,0
0.3000,3.16377,-0.13496,9.70866,0.00136,-0.01650,-0.00658,1,28.6139157,77.2090091,215.52,0.1632,0.0000,0.0000,0.9600,0.0000,0.0000,0
0.3200,2.90434,0.00645,9.83082,-0.00524,-0.00603,0.01539,1,28.6139091,77.2090094,215.99,0.1836,0.0000,0.0000,1.0200,0.0000,0.0000,0
0.3400,2.99646,-0.09005,9.81180,0.00036,-0.01060,0.00229,1,28.6138996,77.2089895,217.29,0.2052,0.0000,0.0000,1.0800,0.0000,0.0000,0
0.3600,3.16504,-0.06303,9.99272,0.00390,-0.00775,-0.00657,1,28.6138889,77.2089995,215.87,0.2280,0.0000,0.0000,1.1400,0.0000,0.0000,0
0.3800,2.95331,-0.14885,9.99314,0.00217,0.00981,0.00309,1,28.6139145,77.2090040,216.13,0.2520,0.0000,0.0000,1.2000,0.0000,0.0000,0
0.4000,3.07225,0.02142,9.94478,0.01287,0.00368,0.00785,1,28.6138886,77.2089921,215.62,0.2772,0.0000,0.0000,1.2600,0.0000,0.0000,0
0.4200,3.03730,-0.11757,9.79043,-0.00541,-0.00612,-0.00601,1,28.6139030,77.2089927,216.38,0.3036,0.0000,0.0000,1.3200,0.0000,0.0000,0
0.4400,3.19939,-0.09887,9.64652,-0.00612,-0.00049,0.01171,1,28.6139145,77.2090044,216.16,0.3312,0.0000,0.0000,1.3800,0.0000,0.0000,0
0.4600,3.11759,0.29059,9.77004,-0.00592,-0.02006,0.00714,1,28.6138950,77.2090159,215.86,0.3600,0.0000,0.0000,1.4400,0.0000,0.0000,0
0.4800,3.01914,-0.17480,9.72554,0.00087,0.00553,0.00626,1,28.6138969,77.2090175,216.10,0.3900,0.0000,0.0000,1.5000,0.0000,0.0000,0
0.5000,3.02731,0.00715,9.72268,-0.00189,-0.00343,0.01914,1,28.6139049,77.2089995,216.33,0.4212,0.0000,0.0000,1.5600,0.0000,0.0000,0
0.5200,3.00625,-0.06295,9.89885,-0.00748,-0.01072,-0.00080,1,28.6138917,77.2090071,215.97,0.4536,0.0000,0.0000,1.6200,0.0000,0.0000,0
0.5400,3.29242,-0.00823,10.04349,-0.00522,0.00445,0.00808,1,28.6138903,77.2090030,216.62,0.4872,0.0000,0.0000,1.6800,0.0000,0.0000,0
0.5600,2.91889,-0.08435,9.89673,0.00557,-0.00664,-0.00480,1,28.6138915,77.2090086,216.89,0.5220,0.0000,0.0000,1.7400,0.0000,0.0000,0
0.5800,3.05753,-0.00866,9.99802,0.00328,-0.00395,0.00729,1,28.6139033,77.2090103,216.78,0.5580,0.0000,0.0000,1.8000,0.0000,0.0000,0
0.6000,3.03035,0.02463,9.75324,0.01085,0.00043,0.01729,1,28.6138895,77.2090025,216.41,0.5952,0.0000,0.0000,1.8600,0.0000,0.0000,0
0.6200,3.14712,-0.20445,9.62932,0.01521,0.01079,0.00356,1,28.6138898,77.2089917,215.77,0.6336,0.0000,0.0000,1.9200,0.0000,0.0000,0
0.6400,2.95153,0.19207,9.66677,-0.00516,0.00215,0.00184,1,28.6138948,77.2090051,215.28,0.6732,0.0000,0.0000,1.9800,0.0000,0.0000,0
0.6600,3.05463,-0.16213,9.85381,0.01326,-0.00228,0.01015,1,28.6139054,77.2090019,215.75,0.7140,0.0000,0.0000,2.0400,0.0000,0.0000,0
0.6800,2.90583,0.08233,9.84700,-0.00775,-0.01003,0.00233,1,28.6139187,77.2090164,216.36,0.7560,0.0000,0.0000,2.1000,0.0000,0.0000,0
0.7000,3.04274,-0.23319,9.97323,-0.00187,-0.00562,0.01302,1,28.6138992,77.2089981,216.45,0.7992,0.0000,0.0000,2.1600,0.0000,0.0000,0
0.7200,3.18437,0.14129,9.95287,-0.00357,-0.00479,0.00694,1,28.6138900,77.2090083,216.29,0.8436,0.0000,0.0000,2.2200,0.0000,0.0000,0
0.7400,2.93625,-0.13924,9.90806,0.00383,0.01714,0.02001,1,28.6139025,77.2090112,216.37,0.8892,0.0000,0.0000,2.2800,0.0000,0.0000,0
0.7600,3.08962,-0.07548,9.69540,-0.00273,-0.00048,0.01465,1,28.6138943,77.2090271,216.49,0.9360,0.0000,0.0000,2.3400,0.0000,0.0000,0
0.7800,2.88035,-0.01803,9.57629,0.00070,-0.01150,0.00076,1,28.6138932,77.2090140,215.81,0.9840,0.0000,0.0000,2.4000,0.0000,0.0000,0
0.8000,3.04039,-0.13462,9.60190,-0.00974,0.01403,-0.00530,1,28.6139096,77.2090065,215.71,1.0332,0.0000,0.0000,2.4600,0.0000,0.0000,0
0.8200,2.92241,0.23318,10.03124,-0.00737,-0.00595,0.00773,1,28.6139173,77.2090214,216.55,1.0836,0.0000,0.0000,2.5200,0.0000,0.0000,0
0.8400,3.16326,-0.22800,9.86687,0.00822,0.00048,0.00199,1,28.6138845,77.2090080,214.82,1.1352,0.0000,0.0000,2.5800,0.0000,0.0000,0
0.8600,3.08710,-0.03483,9.93892,-0.00013,-0.00114,0.00056,1,28.6138835,77.2090096,216.34,1.1880,0.0000,0.0000,2.6400,0.0000,0.0000,0
0.8800,2.98526,-0.02547,9.98696,0.00481,-0.00257,0.00500,1,28.6138927,77.2090073,215.47,1.2420,0.0000,0.0000,2.7000,0.0000,0.0000,0
0.9000,3.09640,0.03240,9.91940,0.01875,0.00959,0.00809,1,28.6139181,77.2090085,215.95,1.2972,0.0000,0.0000,2.7600,0.0000,0.0000,0
0.9200,2.85919,-0.11146,9.93690,0.00410,0.00084,-0.00896,1,28.6138756,77.2090037,215.33,1.3536,0.0000,0.0000,2.8200,0.0000,0.0000,0
0.9400,3.22277,-0.04474,9.67535,-0.00177,-0.00089,0.00542,1,28.6139101,77.2090196,215.67,1.4112,0.0000,0.0000,2.8800,0.0000,0.0000,0
0.9600,2.93448,0.04920,9.71673,0.00322,0.00877,-0.01553,1,28.6138909,77.2090294,215.59,1.4700,0.0000,0.0000,2.9400,0.0000,0.0000,0
0.9800,3.06523,-0.12745,9.79818,-0.00098,-0.01705,0.00762,1,28.6138891,77.2090032,216.28,1.5300,0.0000,0.0000,3.0000,0.0000,0.0000,0
1.0000,3.17819,-0.03271,9.92576,-0.00063,-0.00349,-0.00342,1,28.6138884,77.2090192,216.39,1.5912,0.0000,0.0000,3.0600,0.0000,0.0000,0
1.0200,2.96907,-0.03757,9.98541,0.01586,0.00642,0.00851,1,28.6139063,77.2090386,216.48,1.6536,0.0000,0.0000,3.1200,0.0000,0.0000,0
1.0400,3.26166,0.09260,10.04265,-0.00037,-0.00247,-0.00058,1,28.6139056,77.2090232,215.69,1.7172,0.0000,0.0000,3.1800,0.0000,0.0000,0
1.0600,3.01059,-0.17536,10.01170,0.00047,0.00637,0.01101,1,28.6139088,77.2090215,216.25,1.7820,0.0000,0.0000,3.2400,0.0000,0.0000,0
1.0800,3.30541,0.03600,9.74593,0.00146,-0.01238,0.00085,1,28.6139292,77.2090194,217.01,1.8480,0.0000,0.0000,3.3000,0.0000,0.0000,0
1.1000,3.04677,0.05808,9.73020,-0.00611,-0.00274,-0.00473,1,28.6139025,77.2090210,216.62,1.9152,0.0000,0.0000,3.3600,0.0000,0.0000,0
1.1200,3.07877,-0.08153,9.83120,0.00687,-0.02133,0.00743,1,28.6138867,77.2090297,215.71,1.9836,0.0000,0.0000,3.4200,0.0000,0.0000,0
1.1400,2.98795,0.10827,9.88463,-0.01451,-0.00773,0.00973,1,28.6138915,77.2090231,215.55,2.0532,0.0000,0.0000,3.4800,0.0000,0.0000,0
1.1600,2.92851,-0.03098,9.85628,0.00877,-0.00757,0.01151,1,28.6139103,77.2090021,215.64,2.1240,0.0000,0.0000,3.5400,0.0000,0.0000,0
1.1800,3.15532,0.10486,9.93321,0.00416,-0.00991,0.00382,1,28.6138947,77.2090273,216.06,2.1960,0.0000,0.0000,3.6000,0.0000,0.0000,0
1.2000,2.95726,-0.09641,10.05076,-0.00647,-0.00400,0.01685,1,28.6138937,77.2090325,216.02,2.2692,0.0000,0.0000,3.6600,0.0000,0.0000,0
1.2200,3.08183,-0.03148,9.98141,0.00876,-0.00291,0.01563,1,28.6138820,77.2090193,216.01,2.3436,0.0000,0.0000,3.7200,0.0000,0.0000,0
1.2400,2.99067,0.01486,9.94515,0.02062,-0.00464,-0.01103,1,28.6138970,77.2090190,215.44,2.4192,0.0000,0.0000,3.7800,0.0000,0.0000,0
1.2600,3.28621,-0.08910,9.82111,0.01248,-0.01582,-0.00501,1,28.6139007,77.2090267,217.16,2.4960,0.0000,0.0000,3.8400,0.0000,0.0000,0
1.2800,2.81058,-0.02923,9.78324,0.00619,-0.00079,-0.00630,1,28.6139034,77.2090102,215.59,2.5740,0.0000,0.0000,3.9000,0.0000,0.0000,0
1.3000,2.92573,-0.12273,9.70478,0.00568,0.00262,0.00611,1,28.6139023,77.2090366,215.63,2.6532,0.0000,0.0000,3.9600,0.0000,0.0000,0
1.3200,3.07097,0.10457,9.84124,-0.00364,-0.00444,0.00657,1,28.6139028,77.2090302,215.17,2.7336,0.0000,0.0000,4.0200,0.0000,0.0000,0
1.3400,3.09060,-0.18055,9.92819,-0.00013,-0.00394,0.01164,1,28.6139106,77.2090284,216.21,2.8152,0.0000,0.0000,4.0800,0.0000,0.0000,0
1.3600,2.93837,-0.02856,9.83939,-0.01667,-0.00843,0.01100,1,28.6139004,77.2090138,216.70,2.8980,0.0000,0.0000,4.1400,0.0000,0.0000,0
1.3800,2.92475,-0.09067,10.06166,0.01262,-0.00355,0.01583,1,28.6138833,77.2090241,215.32,2.9820,0.0000,0.0000,4.2000,0.0000,0.0000,0
1.4000,3.16150,-0.05991,9.87963,-0.00984,-0.01011,0.00214,1,28.6138882,77.2090494,215.41,3.0672,0.0000,0.0000,4.2600,0.0000,0.0000,0
1.4200,2.98452,0.11520,9.73104,0.00514,-0.01132,0.00880,1,28.6138969,77.2090098,215.89,3.1536,0.0000,0.0000,4.3200,0.0000,0.0000,0
1.4400,3.13809,-0.22757,9.83845,-0.00284,-0.00727,-0.00356,1,28.6138944,77.2090270,215.89,3.2412,0.0000,0.0000,4.3800,0.0000,0.0000,0
1.4600,2.90551,0.09171,9.72175,0.00463,-0.00010,0.01557,1,28.6138949,77.2090336,215.81,3.3300,0.0000,0.0000,4.4400,0.0000,0.0000,0
1.4800,3.05675,-0.25972,9.85988,-0.00065,0.00592,0.00807,1,28.6139019,77.2090269,217.17,3.4200,0.0000,0.0000,4.5000,0.0000,0.0000,0
1.5000,3.02951,0.11790,10.01273,0.01862,-0.00244,0.00628,1,28.6139007,77.2090448,216.21,3.5112,0.0000,0.0000,4.5600,0.0000,0.0000,0
1.5200,3.08192,-0.20923,9.96544,0.00179,-0.00049,-0.00167,1,28.6138903,77.2090364,215.61,3.6036,0.0000,0.0000,4.6200,0.0000,0.0000,0
1.5400,2.99498,-0.10836,9.88702,-0.00167,-0.00535,0.02050,1,28.6139090,77.2090338,216.09,3.6972,0.0000,0.0000,4.6800,0.0000,0.0000,0
1.5600,3.01990,-0.15806,9.97693,-0.00126,-0.00527,0.00648,1,28.6138980,77.2090395,215.47,3.7920,0.0000,0.0000,4.7400,0.0000,0.0000,0
1.5800,3.20930,-0.04961,9.95680,-0.00714,-0.00295,0.02578,1,28.6139224,77.2090434,215.28,3.8880,0.0000,0.0000,4.8000,0.0000,0.0000,0
1.6000,2.94372,0.12174,9.79344,0.00665,-0.00345,0.00364,1,28.6138863,77.2090447,215.52,3.9852,0.0000,0.0000,4.8600,0.0000,0.0000,0
1.6200,3.07010,-0.07207,9.67065,0.00732,0.00568,0.00793,1,28.6139052,77.2090385,216.14,4.0836,0.0000,0.0000,4.9200,0.0000,0.0000,0
1.6400,2.95929,0.11147,9.73064,0.00948,-0.01765,0.00232,1,28.6139136,77.2090493,215.13,4.1832,0.0000,0.0000,4.9800,0.0000,0.0000,0
1.6600,2.89578,-0.26866,9.93592,0.00916,-0.00876,-0.00702,1,28.6138941,77.2090530,216.64,4.2840,0.0000,0.0000,5.0400,0.0000,0.0000,0
1.6800,2.83268,0.04275,10.10809,0.00548,-0.00748,0.00872,1,28.6138944,77.2090507,215.83,4.3860,0.0000,0.0000,5.1000,0.0000,0.0000,0
1.7000,2.84459,-0.15087,9.97873,0.00131,0.00333,0.00776,1,28.6138964,77.2090642,215.62,4.4892,0.0000,0.0000,5.1600,0.0000,0.0000,0
1.7200,3.19479,-0.02077,10.03705,0.01503,-0.01076,-0.00210,1,28.6138950,77.2090397,216.54,4.5936,0.0000,0.0000,5.2200,0.0000,0.0000,0
1.7400,3.02899,-0.06779,10.01313,-0.00154,0.00864,0.00605,1,28.6139045,77.2090550,215.61,4.6992,0.0000,0.0000,5.2800,0.0000,0.0000,0
1.7600,3.17853,0.07269,9.78353,-0.00553,-0.00659,0.00862,1,28.6138980,77.2090534,215.73,4.8060,0.0000,0.0000,5.3400,0.0000,0.0000,0
1.7800,2.81342,0.08530,9.70497,0.01118,-0.02215,-0.00129,1,28.6138990,77.2090441,216.02,4.9140,0.0000,0.0000,5.4000,0.0000,0.0000,0
1.8000,2.97562,-0.19318,9.76234,0.00057,-0.00503,0.00373,1,28.6139043,77.2090441,215.48,5.0232,0.0000,0.0000,5.4600,0.0000,0.0000,0
1.8200,3.02643,0.00555,9.85539,0.00730,0.00008,0.00945,1,28.6138940,77.2090638,216.80,5.1336,0.0000,0.0000,5.5200,0.0000,0.0000,0
1.8400,3.04867,0.01375,9.87953,-0.00046,-0.00903,-0.00326,1,28.6138954,77.2090644,216.04,5.2452,0.0000,0.0000,5.5800,0.0000,0.0000,0
1.8600,2.99825,0.00405,9.95231,0.00467,-0.00259,-0.00112,1,28.6138975,77.2090520,216.77,5.3580,0.0000,0.0000,5.6400,0.0000,0.0000,0
1.8800,3.01955,-0.04734,9.96175,-0.00322,0.00139,0.00650,1,28.6139126,77.2090428,216.12,5.4720,0.0000,0.0000,5.7000,0.0000,0.0000,0
1.9000,3.03828,0.00164,9.94815,-0.00520,-0.00148,-0.00664,1,28.6138957,77.2090690,215.72,5.5872,0.0000,0.0000,5.7600,0.0000,0.0000,0
1.9200,3.02713,0.07737,9.82141,0.00491,-0.02228,-0.00425,1,28.6138951,77.2090728,216.10,5.7036,0.0000,0.0000,5.8200,0.0000,0.0000,0
1.9400,3.12508,-0.16686,9.82134,0.01798,-0.01241,-0.00170,1,28.6138919,77.2090681,215.92,5.8212,0.0000,0.0000,5.8800,0.0000,0.0000,0
1.9600,2.97669,0.18637,9.63910,0.00399,0.01157,-0.00821,1,28.6138990,77.2090669,216.68,5.9400,0.0000,0.0000,5.9400,0.0000,0.0000,0
1.9800,2.98169,-0.17546,9.73286,0.00850,-0.00107,-0.00920,1,28.6138943,77.2090532,216.52,6.0600,0.0000,0.0000,6.0000,0.0000,0.0000,0
2.0000,3.08123,0.04380,9.95861,-0.00302,-0.00809,0.00933,1,28.6139031,77.2090590,215.75,6.1812,0.0000,0.0000,6.0600,0.0000,0.0000,0
2.0200,3.05686,-0.10573,9.80395,0.00630,-0.01127,0.00688,1,28.6139181,77.2090572,215.46,6.3036,0.0000,0.0000,6.1200,0.0000,0.0000,0
2.0400,3.00825,0.09318,9.91189,-0.00826,0.00271,0.00693,1,28.6139094,77.2090674,217.12,6.4272,0.0000,0.0000,6.1800,0.0000,0.0000,0
2.0600,2.88230,0.03500,9.91386,0.00226,-0.00085,0.00004,1,28.6139069,77.2090661,216.69,6.5520,0.0000,0.0000,6.2400,0.0000,0.0000,0
2.0800,3.19745,-0.06514,9.83876,0.01290,-0.01132,-0.01430,1,28.6138972,77.2090532,215.31,6.6780,0.0000,0.0000,6.3000,0.0000,0.0000,0
2.1000,3.05475,0.21103,9.75369,-0.01349,-0.00548,0.00271,1,28.6138898,77.2090642,216.28,6.8052,0.0000,0.0000,6.3600,0.0000,0.0000,0
2.1200,3.11727,-0.19556,9.78514,0.00620,-0.01496,0.01059,1,28.6138960,77.2090569,216.61,6.9336,0.0000,0.0000,6.4200,0.0000,0.0000,0
2.1400,3.14640,0.08891,9.72834,0.00086,0.00192,-0.00885,1,28.6139180,77.2090753,216.53,7.0632,0.0000,0.0000,6.4800,0.0000,0.0000,0
2.1600,3.06819,-0.18029,9.97463,0.00061,0.01034,-0.00383,1,28.6139021,77.2090940,216.62,7.1940,0.0000,0.0000,6.5400,0.0000,0.0000,0
2.1800,3.11682,0.11178,9.84494,0.00342,0.00670,0.00241,1,28.6139116,77.2090662,216.33,7.3260,0.0000,0.0000,6.6000,0.0000,0.0000,0
2.2000,2.83411,-0.12849,9.89858,-0.00074,-0.00365,-0.00865,1,28.6138969,77.2090716,216.16,7.4592,0.0000,0.0000,6.6600,0.0000,0.0000,0
2.2200,3.01207,0.07286,9.92341,-0.01852,0.00328,0.00718,1,28.6138997,77.2090869,216.54,7.5936,0.0000,0.0000,6.7200,0.0000,0.0000,0
2.2400,2.86502,-0.15783,9.96769,0.00479,0.01606,0.00836,1,28.6138969,77.2090784,215.66,7.7292,0.0000,0.0000,6.7800,0.0000,0.0000,0
2.2600,3.18889,-0.06584,9.87782,0.00700,0.00701,0.00083,1,28.6139088,77.2090978,215.17,7.8660,0.0000,0.0000,6.8400,0.0000,0.0000,0
2.2800,2.90385,-0.00403,9.81133,0.01399,-0.00667,0.00160,1,28.6139058,77.2090881,216.00,8.0040,0.0000,0.0000,6.9000,0.0000,0.0000,0
2.3000,3.13566,-0.14674,9.81869,-0.01601,-0.00961,-0.00126,1,28.6139010,77.2090811,215.74,8.1432,0.0000,0.0000,6.9600,0.0000,0.0000,0
2.3200,2.82453,0.00914,9.72563,0.00039,0.00590,0.00304,1,28.6138964,77.2091145,216.07,8.2836,0.0000,0.0000,7.0200,0.0000,0.0000,0
2.3400,2.94249,-0.15361,9.97043,-0.00581,-0.01028,0.00947,1,28.6139050,77.2090925,216.25,8.4252,0.0000,0.0000,7.0800,0.0000,0.0000,0
2.3600,3.08009,0.12696,9.95688,0.00761,-0.01128,0.00490,1,28.6139065,77.2091037,216.15,8.5680,0.0000,0.0000,7.1400,0.0000,0.0000,0
2.3800,2.93068,-0.20376,9.84945,0.00749,-0.00581,-0.00318,1,28.6139074,77.2090667,216.52,8.7120,0.0000,0.0000,7.2000,0.0000,0.0000,0
2.4000,3.14643,0.09732,9.74473,-0.00997,-0.01038,0.01669,1,28.6139038,77.2090892,216.54,8.8572,0.0000,0.0000,7.2600,0.0000,0.0000,0
2.4200,2.94284,0.03892,9.75040,-0.00696,0.00058,0.00547,1,28.6138873,77.2090733,216.15,9.0036,0.0000,0.0000,7.3200,0.0000,0.0000,0
2.4400,3.19248,-0.09611,9.78644,0.00326,0.00322,0.01146,1,28.6138956,77.2091008,215.16,9.1512,0.0000,0.0000,7.3800,0.0000,0.0000,0
2.4600,2.82826,-0.12231,9.81703,0.01150,-0.01116,-0.00988,1,28.6139002,77.2090904,215.69,9.3000,0.0000,0.0000,7.4400,0.0000,0.0000,0
2.4800,3.09210,-0.06711,9.91831,0.00613,-0.00597,-0.00215,1,28.6139038,77.2091125,215.59,9.4500,0.0000,0.0000,7.5000,0.0000,0.0000,0
2.5000,3.04092,0.06606,9.77544,0.01839,0.01128,0.01409,1,28.6138910,77.2090933,215.57,9.6012,0.0000,0.0000,7.5600,0.0000,0.0000,0
2.5200,2.92216,-0.07317,9.98997,0.00554,0.00700,0.01008,1,28.6138939,77.2090970,216.35,9.7536,0.0000,0.0000,7.6200,0.0000,0.0000,0
2.5400,3.18135,0.10843,10.00368,-0.01227,-0.00233,0.00055,1,28.6139073,77.2090981,214.82,9.9072,0.0000,0.0000,7.6800,0.0000,0.0000,0
2.5600,2.82903,0.05345,10.08743,0.01287,-0.00096,0.01581,1,28.6139059,77.2090922,217.09,10.0620,0.0000,0.0000,7.7400,0.0000,0.0000,0
2.5800,3.16073,-0.00624,9.78421,0.00518,-0.00252,-0.00542,1,28.6139068,77.2091049,216.04,10.2180,0.0000,0.0000,7.8000,0.0000,0.0000,0
2.6000,2.92178,0.00070,9.92992,0.00915,-0.00291,0.00699,1,28.6138934,77.2091096,216.28,10.3752,0.0000,0.0000,7.8600,0.0000,0.0000,0
2.6200,3.13600,-0.12272,9.65218,0.00079,-0.00897,-0.00500,1,28.6139089,77.2091152,216.05,10.5336,0.0000,0.0000,7.9200,0.0000,0.0000,0
2.6400,3.02309,0.10646,9.61239,0.00102,0.00497,0.01347,1,28.6139006,77.2091198,216.70,10.6932,0.0000,0.0000,7.9800,0.0000,0.0000,0
2.6600,3.13711,-0.14594,9.75920,-0.00667,-0.00024,0.00803,1,28.6139150,77.2091010,215.82,10.8540,0.0000,0.0000,8.0400,0.0000,0.0000,0
2.6800,3.17283,0.17423,9.90388,-0.00795,-0.00555,0.00674,1,28.6139143,77.2091111,215.73,11.0160,0.0000,0.0000,8.1000,0.0000,0.0000,0
2.7000,2.95330,-0.17331,9.99101,-0.00203,-0.00802,0.00749,1,28.6138982,77.2091321,215.68,11.1792,0.0000,0.0000,8.1600,0.0000,0.0000,0
2.7200,3.10916,0.05383,9.98709,-0.00712,-0.00685,0.01650,1,28.6138929,77.2091323,216.09,11.3436,0.0000,0.0000,8.2200,0.0000,0.0000,0
2.7400,2.82916,-0.22182,9.75188,0.00223,-0.00275,0.00406,1,28.6138937,77.2091098,215.46,11.5092,0.0000,0.0000,8.2800,0.0000,0.0000,0
2.7600,3.25501,-0.26631,9.84415,0.01449,-0.01202,0.00196,1,28.6138947,77.2091133,215.72,11.6760,0.0000,0.0000,8.3400,0.0000,0.0000,0
2.7800,2.87845,-0.03725,9.72197,0.01342,0.01170,0.00231,1,28.6139087,77.2091206,215.85,11.8440,0.0000,0.0000,8.4000,0.0000,0.0000,0
2.8000,3.26294,-0.12424,9.88282,0.00125,-0.00195,0.00792,1,28.6139107,77.2091412,215.89,12.0132,0.0000,0.0000,8.4600,0.0000,0.0000,0
2.8200,3.26447,0.15433,9.74226,0.00975,-0.00589,0.00108,1,28.6139163,77.2091059,215.20,12.1836,0.0000,0.0000,8.5200,0.0000,0.0000,0
2.8400,3.09765,-0.14657,9.90878,0.00211,-0.00031,0.00840,1,28.6139012,77.2091241,215.70,12.3552,0.0000,0.0000,8.5800,0.0000,0.0000,0
2.8600,2.94285,0.12848,9.87941,-0.00954,-0.00347,0.00567,1,28.6139095,77.2091313,216.87,12.5280,0.0000,0.0000,8.6400,0.0000,0.0000,0
2.8800,2.89206,-0.04001,9.86715,-0.00126,-0.00768,0.00463,1,28.6139091,77.2091363,216.23,12.7020,0.0000,0.0000,8.7000,0.0000,0.0000,0
2.9000,3.17644,-0.07355,9.98513,0.00250,-0.01814,-0.01067,1,28.6139014,77.2091331,215.95,12.8772,0.0000,0.0000,8.7600,0.0000,0.0000,0
2.9200,2.91925,-0.04014,9.83334,0.00178,-0.00120,0.01258,1,28.6138951,77.2091171,215.59,13.0536,0.0000,0.0000,8.8200,0.0000,0.0000,0
2.9400,3.05969,-0.17485,9.67672,0.00431,0.00696,0.00155,1,28.6139041,77.2091314,215.90,13.2312,0.0000,0.0000,8.8800,0.0000,0.0000,0
2.9600,2.75772,-0.07884,9.67024,-0.00246,-0.00627,0.00531,1,28.6138909,77.2091175,215.79,13.4100,0.0000,0.0000,8.9400,0.0000,0.0000,0
2.9800,3.05924,-0.05763,9.72042,-0.00490,0.00083,-0.00729,1,28.6139019,77.2091614,216.62,13.5900,0.0000,0.0000,9.0000,0.0000,0.0000,0
3.0000,3.07118,0.09820,9.84485,0.01471,-0.00798,0.02148,1,28.6138972,77.2091315,215.97,13.7712,0.0000,0.0000,9.0600,0.0000,0.0000,0
3.0200,2.97779,-0.24373,9.94439,-0.00661,-0.00901,0.00818,1,28.6138997,77.2091362,214.80,13.9536,0.0000,0.0000,9.1200,0.0000,0.0000,0
3.0400,3.16659,0.00770,10.05541,0.01126,0.00849,0.00924,1,28.6138891,77.2091414,215.97,14.1372,0.0000,0.0000,9.1800,0.0000,0.0000,0
3.0600,3.04050,-0.23156,9.92368,-0.00494,-0.00205,0.00043,1,28.6138907,77.2091407,215.85,14.3220,0.0000,0.0000,9.2400,0.0000,0.0000,0
3.0800,3.14647,0.12811,9.85811,0.00531,-0.00486,0.00561,1,28.6139118,77.2091511,215.26,14.5080,0.0000,0.0000,9.3000,0.0000,0.0000,0
3.1000,2.92635,0.04295,9.87934,0.01518,-0.00052,0.00972,1,28.6139029,77.2091485,216.56,14.6952,0.0000,0.0000,9.3600,0.0000,0.0000,0
3.1200,3.04039,-0.11352,9.81400,0.00893,-0.00131,0.01209,1,28.6139070,77.2091450,216.55,14.8836,0.0000,0.0000,9.4200,0.0000,0.0000,0
3.1400,3.02145,0.17118,9.77848,-0.00085,-0.00031,-0.01844,1,28.6138938,77.2091487,216.02,15.0732,0.0000,0.0000,9.4800,0.0000,0.0000,0
3.1600,3.08567,-0.44093,9.68893,0.00561,0.00082,-0.00430,1,28.6138742,77.2091623,215.01,15.2640,0.0000,0.0000,9.5400,0.0000,0.0000,0
3.1800,3.01287,0.19587,9.87574,0.01994,-0.00302,0.00826,1,28.6139049,77.2091611,215.34,15.4560,0.0000,0.0000,9.6000,0.0000,0.0000,0
3.2000,3.09882,-0.11660,9.89059,0.00112,-0.00328,-0.00592,1,28.6139129,77.2091684,216.69,15.6492,0.0000,0.0000,9.6600,0.0000,0.0000,0
3.2200,3.12085,-0.02508,10.03918,0.00228,-0.00526,0.00415,1,28.6139058,77.2091742,215.90,15.8436,0.0000,0.0000,9.7200,0.0000,0.0000,0
3.2400,2.93998,-0.00314,9.82085,-0.00633,0.00584,0.00170,1,28.6138850,77.2091914,216.28,16.0392,0.0000,0.0000,9.7800,0.0000,0.0000,0
3.2600,3.04453,-0.01698,9.84954,-0.01025,-0.00116,0.01088,1,28.6139123,77.2091639,215.17,16.2360,0.0000,0.0000,9.8400,0.0000,0.0000,0
3.2800,2.96863,0.08486,9.63573,0.00465,-0.00542,0.00114,1,28.6139055,77.2091691,215.85,16.4340,0.0000,0.0000,9.9000,0.0000,0.0000,0
3.3000,3.18018,-0.00874,9.88607,0.01252,-0.00388,0.00782,1,28.6139139,77.2091786,216.43,16.6332,0.0000,0.0000,9.9600,0.0000,0.0000,0
3.3200,3.07150,0.09592,9.80930,0.00859,-0.00347,-0.00083,1,28.6138993,77.2091743,215.81,16.8336,0.0000,0.0000,10.0200,0.0000,0.0000,0
3.3400,2.99180,-0.09834,9.88673,0.00472,0.00236,0.00200,1,28.6139056,77.2091776,215.50,17.0352,0.0000,0.0000,10.0800,0.0000,0.0000,0
3.3600,3.15831,0.10546,9.85918,0.01354,-0.00701,-0.00824,1,28.6138981,77.2091662,216.50,17.2380,0.0000,0.0000,10.1400,0.0000,0.0000,0
3.3800,2.86393,-0.18817,9.97870,-0.00019,-0.00569,0.00996,1,28.6139002,77.2091866,216.22,17.4420,0.0000,0.0000,10.2000,0.0000,0.0000,0
3.4000,3.18132,0.03237,9.95997,0.00693,-0.01986,0.00208,1,28.6139092,77.2091973,215.84,17.6472,0.0000,0.0000,10.2600,0.0000,0.0000,0
3.4200,2.74582,-0.01958,9.84124,0.01036,0.00650,0.00662,1,28.6139027,77.2091925,216.14,17.8536,0.0000,0.0000,10.3200,0.0000,0.0000,0
3.4400,3.10855,-0.04228,9.72195,0.00199,0.00489,0.00054,1,28.6138900,77.2091832,215.75,18.0612,0.0000,0.0000,10.3800,0.0000,0.0000,0
3.4600,3.02231,0.11167,9.66050,0.00979,0.00259,0.00582,1,28.6139128,77.2091664,215.49,18.2700,0.0000,0.0000,10.4400,0.0000,0.0000,0
3.4800,3.02319,-0.21031,9.73149,0.00634,-0.01065,0.00850,1,28.6139090,77.2091910,215.78,18.4800,0.0000,0.0000,10.5000,0.0000,0.0000,0
3.5000,2.94066,0.07367,9.86542,0.02156,-0.01402,0.01678,1,28.6138981,77.2092025,215.89,18.6912,0.0000,0.0000,10.5600,0.0000,0.0000,0
3.5200,3.00781,-0.10868,9.94826,0.00556,-0.00423,0.01663,1,28.6138947,77.2091851,216.13,18.9036,0.0000,0.0000,10.6200,0.0000,0.0000,0
3.5400,3.08563,0.14806,9.92486,0.00152,-0.01158,0.00864,1,28.6138825,77.2091906,216.46,19.1172,0.0000,0.0000,10.6800,0.0000,0.0000,0
3.5600,3.04703,-0.08728,9.93336,-0.00692,-0.00483,-0.00774,1,28.6138971,77.2092006,215.99,19.3320,0.0000,0.0000,10.7400,0.0000,0.0000,0
3.5800,3.08673,-0.00432,9.97721,0.02447,-0.00769,0.01648,1,28.6139169,77.2091974,216.12,19.5480,0.0000,0.0000,10.8000,0.0000,0.0000,0
3.6000,2.94537,-0.00502,9.82072,0.00250,-0.00212,0.00173,1,28.6139091,77.2092012,215.84,19.7652,0.0000,0.0000,10.8600,0.0000,0.0000,0
3.6200,3.02061,-0.22998,9.79104,-0.00021,-0.00777,0.00507,1,28.6138988,77.2092163,216.89,19.9836,0.0000,0.0000,10.9200,0.0000,0.0000,0
3.6400,3.04578,0.08959,9.70285,0.01181,0.00963,0.00896,1,28.6138966,77.2091953,215.95,20.2032,0.0000,0.0000,10.9800,0.0000,0.0000,0
3.6600,3.13293,-0.04970,9.91722,0.00691,0.00179,0.00916,1,28.6139023,77.2092226,215.76,20.4240,0.0000,0.0000,11.0400,0.0000,0.0000,0
3.6800,2.98206,0.14229,9.80600,-0.00436,0.00743,0.01172,1,28.6138923,77.2091955,216.62,20.6460,0.0000,0.0000,11.1000,0.0000,0.0000,0
3.7000,3.08846,-0.14882,9.87860,0.00008,-0.00218,0.00563,1,28.6139125,77.2092263,215.26,20.8692,0.0000,0.0000,11.1600,0.0000,0.0000,0
3.7200,3.23201,0.00540,9.99339,-0.00591,0.00060,0.00502,1,28.6139040,77.2092199,216.18,21.0936,0.0000,0.0000,11.2200,0.0000,0.0000,0
3.7400,2.86214,-0.07135,9.88609,-0.00016,0.01117,0.00421,1,28.6139261,77.2092143,215.87,21.3192,0.0000,0.0000,11.2800,0.0000,0.0000,0
3.7600,3.13836,-0.22028,9.74094,-0.00010,-0.00849,0.01605,1,28.6139092,77.2092130,216.50,21.5460,0.0000,0.0000,11.3400,0.0000,0.0000,0
3.7800,2.92549,0.13737,9.75301,0.00230,-0.00371,0.00503,1,28.6139051,77.2092221,216.04,21.7740,0.0000,0.0000,11.4000,0.0000,0.0000,0
3.8000,3.24804,-0.31265,9.58240,-0.00235,-0.00288,0.01052,1,28.6139097,77.2092227,216.41,22.0032,0.0000,0.0000,11.4600,0.0000,0.0000,0
3.8200,3.04800,0.05549,9.88036,0.01024,-0.00153,0.01270,1,28.6139031,77.2092253,216.44,22.2336,0.0000,0.0000,11.5200,0.0000,0.0000,0
3.8400,3.04677,-0.19397,9.94232,0.00288,-0.00299,0.01678,1,28.6138950,77.2092245,216.14,22.4652,0.0000,0.0000,11.5800,0.0000,0.0000,0
3.8600,2.90174,-0.03826,9.86300,-0.00091,-0.00504,-0.00706,1,28.6138835,77.2092459,216.17,22.6980,0.0000,0.0000,11.6400,0.0000,0.0000,0
3.8800,2.86873,-0.17536,10.17112,0.01641,-0.00629,0.00209,1,28.6139111,77.2092252,216.23,22.9320,0.0000,0.0000,11.7000,0.0000,0.0000,0
3.9000,3.06219,-0.14557,9.91783,-0.00598,-0.00368,-0.00780,1,28.6139013,77.2092405,216.71,23.1672,0.0000,0.0000,11.7600,0.0000,0.0000,0
3.9200,2.85928,-0.01057,9.87091,0.00534,-0.01356,0.01184,1,28.6138999,77.2092338,216.21,23.4036,0.0000,0.0000,11.8200,0.0000,0.0000,0
3.9400,3.08456,-0.03046,9.76334,-0.00901,-0.00553,0.00792,1,28.6138937,77.2092506,215.96,23.6412,0.0000,0.0000,11.8800,0.0000,0.0000,0
3.9600,3.00689,0.04620,9.85943,0.01006,-0.00505,0.01100,1,28.6138986,77.2092504,215.75,23.8800,0.0000,0.0000,11.9400,0.0000,0.0000,0
3.9800,3.23888,0.01527,9.67626,-0.00541,0.00888,-0.00347,1,28.6138905,77.2092380,215.32,24.1200,0.0000,0.0000,12.0000,0.0000,0.0000,0
4.0000,-0.06580,0.05110,9.89027,0.00118,-0.00820,-0.00039,1,28.6138913,77.2092288,216.84,24.3600,0.0000,0.0000,12.0000,0.0000,0.0000,0
4.0200,-0.06116,-0.21193,10.12133,0.00438,0.00409,0.00109,1,28.6139022,77.2092406,214.93,24.6000,0.0000,0.0000,12.0000,0.0000,0.0000,0
4.0400,0.10727,0.00039,9.76428,-0.00902,-0.01748,-0.01300,1,28.6139040,77.2092480,216.23,24.8400,0.0000,0.0000,12.0000,0.0000,0.0000,0
4.0600,-0.16421,0.02490,9.94556,0.01232,0.00029,0.01126,1,28.6139162,77.2092467,215.66,25.0800,0.0000,0.0000,12.0000,0.0000,0.0000,0
4.0800,0.08769,0.01945,9.92999,-0.00261,0.00148,0.00953,1,28.6138939,77.2092346,214.82,25.3200,0.0000,0.0000,12.0000,0.0000,0.0000,0
4.1000,-0.11809,-0.08274,9.69139,0.00269,-0.00038,-0.00134,1,28.6138944,77.2092542,215.93,25.5600,0.0000,0.0000,12.0000,0.0000,0.0000,0
4.1200,0.13459,-0.06085,9.78823,0.01442,0.00722,-0.00301,1,28.6138907,77.2092640,216.13,25.8000,0.0000,0.0000,12.0000,0.0000,0.0000,0
4.1400,0.11688,0.03268,9.83892,0.00254,-0.00630,-0.00946,1,28.6139116,77.2092534,215.69,26.0400,0.0000,0.0000,12.0000,0.0000,0.0000,0
4.1600,0.04131,-0.27380,9.90419,0.01413,-0.00938,0.00742,1,28.6138993,77.2092593,216.01,26.2800,0.0000,0.0000,12.0000,0.0000,0.0000,0
4.1800,0.01181,0.03595,9.97642,0.00169,0.01092,0.00114,1,28.6138913,77.2092593,215.49,26.5200,0.0000,0.0000,12.0000,0.0000,0.0000,0
4.2000,0.04941,-0.11929,10.03444,-0.00158,-0.00340,0.00408,1,28.6138956,77.2092617,215.19,26.7600,0.0000,0.0000,12.0000,0.0000,0.0000,0
4.2200,0.07443,0.08727,10.01725,0.00675,0.00930,0.01659,1,28.6139201,77.2092815,216.33,27.0000,0.0000,0.0000,12.0000,0.0000,0.0000,0
4.2400,-0.10787,-0.02264,9.85094,0.00219,-0.00780,0.01796,1,28.6138809,77.2092793,216.16,27.2400,0.0000,0.0000,12.0000,0.0000,0.0000,0
4.2600,0.18697,-0.06993,9.90796,-0.01536,-0.01911,0.01137,1,28.6139021,77.2092865,216.49,27.4800,0.0000,0.0000,12.0000,0.0000,0.0000,0
4.2800,-0.05648,0.05433,9.64196,0.00181,0.01303,0.01159,1,28.6139016,77.2092760,214.85,27.7200,0.0000,0.0000,12.0000,0.0000,0.0000,0
4.3000,0.12411,-0.16221,9.71096,-0.01503,-0.00094,0.01176,1,28.6139293,77.2092806,216.99,27.9600,0.0000,0.0000,12.0000,0.0000,0.0000,0
4.3200,-0.11589,0.03332,9.70624,-0.00572,-0.00257,-0.01168,1,28.6139071,77.2092756,215.32,28.2000,0.0000,0.0000,12.0000,0.0000,0.0000,0
4.3400,0.07410,-0.08875,9.86640,-0.01785,-0.01097,0.01486,1,28.6138840,77.2092996,214.87,28.4400,0.0000,0.0000,12.0000,0.0000,0.0000,0
4.3600,-0.12443,0.04735,9.86357,0.00844,-0.00840,0.00823,1,28.6138995,77.2093020,216.29,28.6800,0.0000,0.0000,12.0000,0.0000,0.0000,0
4.3800,-0.00722,0.04041,9.95829,0.00501,-0.01488,0.01452,1,28.6139116,77.2092835,216.63,28.9200,0.0000,0.0000,12.0000,0.0000,0.0000,0
4.4000,0.09329,-0.03778,9.92540,-0.01050,-0.00117,0.01274,1,28.6138903,77.2092938,216.79,29.1600,0.0000,0.0000,12.0000,0.0000,0.0000,0
4.4200,-0.05633,-0.14958,9.83171,0.00794,-0.01802,-0.00360,1,28.6138888,77.2093058,215.00,29.4000,0.0000,0.0000,12.0000,0.0000,0.0000,0
4.4400,0.21870,-0.05949,9.79715,0.01688,0.00075,0.01026,1,28.6138931,77.2092823,215.61,29.6400,0.0000,0.0000,12.0000,0.0000,0.0000,0
4.4600,0.17471,0.04037,9.67306,0.00542,0.00051,0.00079,1,28.6139151,77.2092952,216.60,29.8800,0.0000,0.0000,12.0000,0.0000,0.0000,0
4.4800,0.00158,0.04321,9.80065,-0.00386,0.00433,0.00413,1,28.6139058,77.2093016,215.49,30.1200,0.0000,0.0000,12.0000,0.0000,0.0000,0
4.5000,0.01977,0.13498,9.75330,0.00482,0.01230,0.00873,1,28.6138771,77.2093165,215.92,30.3600,0.0000,0.0000,12.0000,0.0000,0.0000,0
4.5200,-0.03427,-0.18214,9.90597,-0.00003,-0.00602,0.01233,1,28.6138963,77.2093179,215.83,30.6000,0.0000,0.0000,12.0000,0.0000,0.0000,0
4.5400,-0.01651,0.12644,9.94604,0.00502,-0.01202,0.01563,1,28.6139091,77.2093096,215.87,30.8400,0.0000,0.0000,12.0000,0.0000,0.0000,0
4.5600,0.03107,-0.00433,9.82793,0.00863,0.00024,-0.00784,1,28.6139090,77.2092968,216.82,31.0800,0.0000,0.0000,12.0000,0.0000,0.0000,0
4.5800,0.15782,0.00670,9.91618,0.00342,-0.00067,0.01679,1,28.6139179,77.2093049,216.70,31.3200,0.0000,0.0000,12.0000,0.0000,0.0000,0
4.6000,0.02396,-0.22228,9.76072,0.00068,-0.01702,0.00575,1,28.6139030,77.2093311,215.86,31.5600,0.0000,0.0000,12.0000,0.0000,0.0000,0
4.6200,0.23236,-0.19342,9.76569,-0.00533,-0.00838,0.01682,1,28.6138997,77.2093196,216.13,31.8000,0.0000,0.0000,12.0000,0.0000,0.0000,0
4.6400,-0.06122,0.11213,9.60563,0.01690,0.00182,0.00354,1,28.6138950,77.2093250,215.76,32.0400,0.0000,0.0000,12.0000,0.0000,0.0000,0
4.6600,0.10108,-0.26184,9.92141,-0.00059,-0.00463,0.00107,1,28.6139100,77.2093234,216.40,32.2800,0.0000,0.0000,12.0000,0.0000,0.0000,0
4.6800,0.02339,0.14180,9.93493,0.00721,-0.00307,0.00911,1,28.6138943,77.2093297,215.88,32.5200,0.0000,0.0000,12.0000,0.0000,0.0000,0
4.7000,-0.06404,0.05130,9.84534,0.01209,0.00794,-0.00182,1,28.6139137,77.2093216,216.38,32.7600,0.0000,0.0000,12.0000,0.0000,0.0000,0
4.7200,0.31966,0.11394,10.04292,0.00222,-0.00474,0.00332,1,28.6138935,77.2093465,215.78,33.0000,0.0000,0.0000,12.0000,0.0000,0.0000,0
4.7400,-0.04663,0.05961,9.91533,-0.00529,0.00360,0.01237,1,28.6139074,77.2093383,216.68,33.2400,0.0000,0.0000,12.0000,0.0000,0.0000,0
4.7600,0.21025,0.00715,9.79080,-0.00543,-0.00995,-0.00808,1,28.6138893,77.2093558,216.52,33.4800,0.0000,0.0000,12.0000,0.0000,0.0000,0
4.7800,-0.04236,0.02762,9.71287,-0.02164,-0.01298,0.01397,1,28.6139139,77.2093608,216.01,33.7200,0.0000,0.0000,12.0000,0.0000,0.0000,0
4.8000,0.05736,-0.09823,9.63127,0.01351,-0.00415,0.00732,1,28.6138893,77.2093382,215.79,33.9600,0.0000,0.0000,12.0000,0.0000,0.0000,0
4.8200,0.19622,0.20755,9.77431,-0.00275,-0.00560,0.00908,1,28.6139045,77.2093554,215.85,34.2000,0.0000,0.0000,12.0000,0.0000,0.0000,0
4.8400,0.01654,-0.18067,10.00387,0.00109,0.01540,0.00573,1,28.6139053,77.2093592,216.00,34.4400,0.0000,0.0000,12.0000,0.0000,0.0000,0
4.8600,0.24064,0.10374,10.03501,-0.00380,-0.00983,0.00868,1,28.6139093,77.2093356,216.23,34.6800,0.0000,0.0000,12.0000,0.0000,0.0000,0
4.8800,0.02662,-0.10327,9.87161,-0.00888,-0.01442,-0.00914,1,28.6139020,77.2093558,215.94,34.9200,0.0000,0.0000,12.0000,0.0000,0.0000,0
4.9000,0.16289,0.09709,9.92611,-0.01608,-0.00453,0.00370,1,28.6138942,77.2093449,215.92,35.1600,0.0000,0.0000,12.0000,0.0000,0.0000,0
4.9200,0.08792,-0.13904,9.81036,0.01565,0.00060,0.00951,1,28.6138926,77.2093608,215.75,35.4000,0.0000,0.0000,12.0000,0.0000,0.0000,0
4.9400,0.15775,-0.05470,9.82640,-0.00448,0.00402,-0.00598,1,28.6139019,77.2093578,215.78,35.6400,0.0000,0.0000,12.0000,0.0000,0.0000,0
4.9600,-0.01588,0.07178,9.68758,0.00182,-0.00798,-0.00357,1,28.6138938,77.2093577,216.30,35.8800,0.0000,0.0000,12.0000,0.0000,0.0000,0
4.9800,0.05589,-0.22989,9.80033,-0.00720,0.00270,-0.00445,1,28.6139029,77.2093807,216.00,36.1200,0.0000,0.0000,12.0000,0.0000,0.0000,0
5.0000,-0.00530,0.04003,9.96266,0.00464,-0.00469,0.00899,0,,,,36.3600,0.0000,0.0000,12.0000,0.0000,0.0000,0
5.0200,-0.17275,-0.14502,10.09860,0.00306,-0.00246,0.00939,0,,,,36.6000,0.0000,0.0000,12.0000,0.0000,0.0000,0
5.0400,0.19379,-0.10232,9.84183,0.00368,-0.00872,0.01550,0,,,,36.8400,0.0000,0.0000,12.0000,0.0000,0.0000,0
5.0600,-0.09379,-0.23586,9.84767,-0.02000,-0.00487,0.00349,0,,,,37.0800,0.0000,0.0000,12.0000,0.0000,0.0000,0
5.0800,0.12581,0.06385,9.96757,0.00064,-0.02008,0.00994,0,,,,37.3200,0.0000,0.0000,12.0000,0.0000,0.0000,0
5.1000,-0.02970,0.03183,9.86463,-0.00732,0.01307,-0.00268,0,,,,37.5600,0.0000,0.0000,12.0000,0.0000,0.0000,0
5.1200,0.19240,-0.24148,9.66435,0.01413,-0.00509,0.01172,0,,,,37.8000,0.0000,0.0000,12.0000,0.0000,0.0000,0
5.1400,0.00115,0.06676,9.86444,0.00011,-0.01725,-0.00143,0,,,,38.0400,0.0000,0.0000,12.0000,0.0000,0.0000,0
5.1600,0.09914,-0.11741,9.70144,-0.00379,-0.00765,0.00208,0,,,,38.2800,0.0000,0.0000,12.0000,0.0000,0.0000,0
5.1800,-0.04023,0.03596,9.85617,0.00817,0.00347,0.00383,0,,,,38.5200,0.0000,0.0000,12.0000,0.0000,0.0000,0
5.2000,-0.06190,-0.11589,9.90545,-0.00717,-0.01052,-0.00008,0,,,,38.7600,0.0000,0.0000,12.0000,0.0000,0.0000,0
5.2200,0.04824,0.04726,10.02361,-0.01070,-0.00280,0.00324,0,,,,39.0000,0.0000,0.0000,12.0000,0.0000,0.0000,0
5.2400,-0.05055,-0.05352,9.78454,-0.00810,-0.00276,0.01323,0,,,,39.2400,0.0000,0.0000,12.0000,0.0000,0.0000,0
5.2600,-0.01926,-0.02483,9.90764,0.00078,0.00140,-0.00062,0,,,,39.4800,0.0000,0.0000,12.0000,0.0000,0.0000,0
5.2800,-0.07087,-0.09537,9.56052,0.00954,-0.01088,0.00136,0,,,,39.7200,0.0000,0.0000,12.0000,0.0000,0.0000,0
5.3000,-0.00038,-0.23988,9.72862,-0.00384,0.00002,0.00862,0,,,,39.9600,0.0000,0.0000,12.0000,0.0000,0.0000,0
5.3200,0.03583,0.10532,9.92506,-0.00654,-0.00344,0.01406,0,,,,40.2000,0.0000,0.0000,12.0000,0.0000,0.0000,0
5.3400,0.12612,-0.26279,9.86150,0.01286,0.00106,0.00656,0,,,,40.4400,0.0000,0.0000,12.0000,0.0000,0.0000,0
5.3600,0.08040,0.04445,9.98103,-0.00002,-0.00334,0.00563,0,,,,40.6800,0.0000,0.0000,12.0000,0.0000,0.0000,0
5.3800,-0.10671,-0.06392,10.20766,-0.01222,-0.00041,-0.00108,0,,,,40.9200,0.0000,0.0000,12.0000,0.0000,0.0000,0
5.4000,0.20032,0.01081,9.98813,0.01140,-0.00146,0.01406,0,,,,41.1600,0.0000,0.0000,12.0000,0.0000,0.0000,0
5.4200,-0.26731,0.10477,9.87161,0.01062,-0.01276,-0.00165,0,,,,41.4000,0.0000,0.0000,12.0000,0.0000,0.0000,0
5.4400,0.16025,-0.08246,9.78683,0.01068,-0.01712,0.01279,0,,,,41.6400,0.0000,0.0000,12.0000,0.0000,0.0000,0
5.4600,-0.04148,0.04117,9.61920,0.00602,-0.02231,0.01019,0,,,,41.8800,0.0000,0.0000,12.0000,0.0000,0.0000,0
5.4800,-0.03519,-0.13730,9.76497,0.01136,-0.00443,-0.00055,0,,,,42.1200,0.0000,0.0000,12.0000,0.0000,0.0000,0
5.5000,-0.00053,0.19183,9.89955,-0.00109,-0.00489,-0.00754,0,,,,42.3600,0.0000,0.0000,12.0000,0.0000,0.0000,0
5.5200,0.02690,-0.28236,9.99894,0.00303,0.01610,-0.00380,0,,,,42.6000,0.0000,0.0000,12.0000,0.0000,0.0000,0
5.5400,0.11393,0.20134,10.07172,-0.00357,-0.00121,0.00502,0,,,,42.8400,0.0000,0.0000,12.0000,0.0000,0.0000,0
5.5600,-0.04602,-0.13699,9.94197,-0.01078,-0.00192,0.00860,0,,,,43.0800,0.0000,0.0000,12.0000,0.0000,0.0000,0
5.5800,0.14157,-0.15167,9.95077,0.00492,-0.00881,0.00276,0,,,,43.3200,0.0000,0.0000,12.0000,0.0000,0.0000,0
5.6000,-0.19418,-0.07495,9.74309,0.01183,-0.00812,0.01012,0,,,,43.5600,0.0000,0.0000,12.0000,0.0000,0.0000,0
5.6200,0.08940,-0.08666,9.72746,0.00898,-0.00728,-0.00758,0,,,,43.8000,0.0000,0.0000,12.0000,0.0000,0.0000,0
5.6400,-0.12837,0.03261,9.65541,0.00528,-0.00673,0.02400,0,,,,44.0400,0.0000,0.0000,12.0000,0.0000,0.0000,0
5.6600,-0.08398,-0.13276,9.73657,-0.00195,-0.00187,-0.01360,0,,,,44.2800,0.0000,0.0000,12.0000,0.0000,0.0000,0
5.6800,0.08879,0.23846,9.87819,0.00408,0.00520,0.00369,0,,,,44.5200,0.0000,0.0000,12.0000,0.0000,0.0000,0
5.7000,-0.07701,-0.30914,10.02206,0.00109,-0.01110,0.00601,0,,,,44.7600,0.0000,0.0000,12.0000,0.0000,0.0000,0
5.7200,0.09462,-0.00797,10.01373,-0.00871,0.00538,-0.00618,0,,,,45.0000,0.0000,0.0000,12.0000,0.0000,0.0000,0
5.7400,-0.13089,0.10135,9.99101,0.00278,-0.01052,0.00077,0,,,,45.2400,0.0000,0.0000,12.0000,0.0000,0.0000,0
5.7600,0.16374,-0.04948,9.80521,0.00175,-0.00472,-0.00654,0,,,,45.4800,0.0000,0.0000,12.0000,0.0000,0.0000,0
5.7800,-0.10264,0.10747,9.63860,0.00048,-0.00956,0.00589,0,,,,45.7200,0.0000,0.0000,12.0000,0.0000,0.0000,0
5.8000,0.07944,-0.00889,9.78305,-0.00849,0.00237,-0.00120,0,,,,45.9600,0.0000,0.0000,12.0000,0.0000,0.0000,0
5.8200,-0.03600,0.11134,9.75950,0.00914,-0.00920,0.00005,0,,,,46.2000,0.0000,0.0000,12.0000,0.0000,0.0000,0
5.8400,-0.02755,-0.19430,9.97443,0.00703,0.01068,0.02314,0,,,,46.4400,0.0000,0.0000,12.0000,0.0000,0.0000,0
5.8600,0.01535,0.08079,9.86387,-0.00422,-0.00804,-0.00346,0,,,,46.6800,0.0000,0.0000,12.0000,0.0000,0.0000,0
5.8800,-0.13661,-0.11803,9.87719,0.00874,-0.01034,0.02748,0,,,,46.9200,0.0000,0.0000,12.0000,0.0000,0.0000,0
5.9000,0.11802,0.01284,9.82356,0.01565,0.00596,0.00738,0,,,,47.1600,0.0000,0.0000,12.0000,0.0000,0.0000,0
5.9200,-0.18751,-0.00561,9.75190,0.01370,0.00347,0.00576,0,,,,47.4000,0.0000,0.0000,12.0000,0.0000,0.0000,0
5.9400,-0.04633,-0.15977,9.81921,0.01170,0.00587,-0.00774,0,,,,47.6400,0.0000,0.0000,12.0000,0.0000,0.0000,0
5.9600,-0.01802,0.13872,9.60422,0.00194,-0.00081,0.00259,0,,,,47.8800,0.0000,0.0000,12.0000,0.0000,0.0000,0
5.9800,-0.06400,-0.16763,9.74832,0.00082,-0.00751,0.00146,0,,,,48.1200,0.0000,0.0000,12.0000,0.0000,0.0000,0
6.0000,0.03682,0.12540,9.83230,-0.00128,-0.00226,-0.01037,0,,,,48.3600,0.0000,0.0000,12.0000,0.0000,0.0000,0
6.0200,0.03399,-0.14162,9.94197,0.00969,-0.01862,-0.01079,0,,,,48.6000,0.0000,0.0000,12.0000,0.0000,0.0000,0
6.0400,0.14405,0.05691,9.99003,-0.00170,0.00231,0.01246,0,,,,48.8400,0.0000,0.0000,12.0000,0.0000,0.0000,0
6.0600,-0.02986,-0.10196,9.78050,0.00815,0.00677,0.01016,0,,,,49.0800,0.0000,0.0000,12.0000,0.0000,0.0000,0
6.0800,0.08939,0.03144,9.94053,0.01447,-0.01001,0.00319,0,,,,49.3200,0.0000,0.0000,12.0000,0.0000,0.0000,0
6.1000,-0.01435,0.01167,9.69673,0.00532,0.00163,0.00570,0,,,,49.5600,0.0000,0.0000,12.0000,0.0000,0.0000,0
6.1200,0.15003,-0.12719,9.85704,-0.00521,-0.00770,0.00509,0,,,,49.8000,0.0000,0.0000,12.0000,0.0000,0.0000,0
6.1400,0.05251,-0.04463,9.65051,-0.01430,-0.00274,-0.00395,0,,,,50.0400,0.0000,0.0000,12.0000,0.0000,0.0000,0
6.1600,0.02428,-0.09614,9.77548,0.00385,-0.00539,0.01038,0,,,,50.2800,0.0000,0.0000,12.0000,0.0000,0.0000,0
6.1800,0.10785,0.03088,9.90097,0.01035,0.00015,-0.00618,0,,,,50.5200,0.0000,0.0000,12.0000,0.0000,0.0000,0
6.2000,0.02192,-0.21385,10.08378,0.01019,-0.00068,0.00626,0,,,,50.7600,0.0000,0.0000,12.0000,0.0000,0.0000,0
6.2200,0.12460,0.08858,9.93557,0.00388,0.00398,0.00051,0,,,,51.0000,0.0000,0.0000,12.0000,0.0000,0.0000,0
6.2400,-0.12717,-0.14803,9.81567,-0.01263,0.00284,0.01947,0,,,,51.2400,0.0000,0.0000,12.0000,0.0000,0.0000,0
6.2600,0.27190,-0.18257,9.87046,0.01338,-0.00665,0.00581,0,,,,51.4800,0.0000,0.0000,12.0000,0.0000,0.0000,0
6.2800,-0.22195,0.05564,9.66299,0.00360,-0.01549,0.00934,0,,,,51.7200,0.0000,0.0000,12.0000,0.0000,0.0000,0
6.3000,0.19250,-0.18974,9.65157,-0.01525,-0.00513,0.00035,0,,,,51.9600,0.0000,0.0000,12.0000,0.0000,0.0000,0
6.3200,-0.11392,0.12247,9.76284,-0.00661,-0.00744,0.01357,0,,,,52.2000,0.0000,0.0000,12.0000,0.0000,0.0000,0
6.3400,0.07319,-0.15946,9.93602,-0.00729,-0.00274,0.00618,0,,,,52.4400,0.0000,0.0000,12.0000,0.0000,0.0000,0
6.3600,0.06022,0.10999,9.89553,0.00608,0.00141,-0.01834,0,,,,52.6800,0.0000,0.0000,12.0000,0.0000,0.0000,0
6.3800,0.04276,-0.35030,9.92524,0.01020,-0.00554,-0.00673,0,,,,52.9200,0.0000,0.0000,12.0000,0.0000,0.0000,0
6.4000,0.06663,0.08923,9.77346,0.01103,-0.00344,-0.00454,0,,,,53.1600,0.0000,0.0000,12.0000,0.0000,0.0000,0
6.4200,-0.12641,-0.10384,9.91091,0.00786,-0.01675,0.00177,0,,,,53.4000,0.0000,0.0000,12.0000,0.0000,0.0000,0
6.4400,0.07952,0.02239,9.65618,0.01483,-0.00327,-0.00430,0,,,,53.6400,0.0000,0.0000,12.0000,0.0000,0.0000,0
6.4600,-0.09633,-0.00665,9.63492,0.00276,-0.01282,-0.01244,0,,,,53.8800,0.0000,0.0000,12.0000,0.0000,0.0000,0
6.4800,0.05380,-0.28580,9.71433,-0.00527,-0.00997,0.02101,0,,,,54.1200,0.0000,0.0000,12.0000,0.0000,0.0000,0
6.5000,0.04451,0.10963,9.71454,-0.00323,-0.00128,-0.00320,0,,,,54.3600,0.0000,0.0000,12.0000,0.0000,0.0000,0
6.5200,0.06847,-0.23779,9.91589,-0.00269,-0.00169,-0.00012,0,,,,54.6000,0.0000,0.0000,12.0000,0.0000,0.0000,0
6.5400,0.10047,0.03859,9.91766,0.00588,-0.00109,0.00429,0,,,,54.8400,0.0000,0.0000,12.0000,0.0000,0.0000,0
6.5600,-0.10302,-0.01737,9.93024,-0.00045,-0.00216,0.01857,0,,,,55.0800,0.0000,0.0000,12.0000,0.0000,0.0000,0
6.5800,0.05253,0.03912,9.72024,0.00374,0.00960,0.00891,0,,,,55.3200,0.0000,0.0000,12.0000,0.0000,0.0000,0
6.6000,-0.06048,-0.03775,9.78860,-0.00002,-0.00929,0.00268,0,,,,55.5600,0.0000,0.0000,12.0000,0.0000,0.0000,0
6.6200,0.14833,-0.16787,9.67427,-0.00888,0.00013,0.00936,0,,,,55.8000,0.0000,0.0000,12.0000,0.0000,0.0000,0
6.6400,0.00072,0.15237,9.76236,0.00514,-0.00057,0.00427,0,,,,56.0400,0.0000,0.0000,12.0000,0.0000,0.0000,0
6.6600,0.01257,0.02808,9.79065,-0.00333,0.00047,0.00701,0,,,,56.2800,0.0000,0.0000,12.0000,0.0000,0.0000,0
6.6800,-0.04254,0.17604,9.90692,-0.00689,0.00651,0.01001,0,,,,56.5200,0.0000,0.0000,12.0000,0.0000,0.0000,0
6.7000,-0.13170,0.01509,10.02348,0.00192,0.00972,0.00627,0,,,,56.7600,0.0000,0.0000,12.0000,0.0000,0.0000,0
6.7200,0.13907,-0.01852,10.01178,0.00581,-0.00288,-0.00132,0,,,,57.0000,0.0000,0.0000,12.0000,0.0000,0.0000,0
6.7400,-0.06748,-0.05807,9.79415,-0.00977,0.00152,-0.01582,0,,,,57.2400,0.0000,0.0000,12.0000,0.0000,0.0000,0
6.7600,0.17431,-0.09073,9.91713,-0.00195,0.00228,0.00182,0,,,,57.4800,0.0000,0.0000,12.0000,0.0000,0.0000,0
6.7800,-0.05222,0.09325,9.71107,0.00997,-0.01095,0.00736,0,,,,57.7200,0.0000,0.0000,12.0000,0.0000,0.0000,0
6.8000,0.18435,-0.07428,9.89584,-0.00411,-0.01403,-0.00295,0,,,,57.9600,0.0000,0.0000,12.0000,0.0000,0.0000,0
6.8200,0.06299,0.12606,9.80702,-0.00698,0.00313,-0.00480,0,,,,58.2000,0.0000,0.0000,12.0000,0.0000,0.0000,0
6.8400,0.11768,0.07954,9.91581,0.00666,-0.00694,-0.00948,0,,,,58.4400,0.0000,0.0000,12.0000,0.0000,0.0000,0
6.8600,0.04959,-0.01227,9.84221,0.01578,-0.00082,0.00804,0,,,,58.6800,0.0000,0.0000,12.0000,0.0000,0.0000,0
6.8800,-0.07718,-0.12032,10.05169,0.00174,0.00125,0.00343,0,,,,58.9200,0.0000,0.0000,12.0000,0.0000,0.0000,0
6.9000,0.12675,-0.10547,9.76896,-0.00009,-0.00255,-0.00529,0,,,,59.1600,0.0000,0.0000,12.0000,0.0000,0.0000,0
6.9200,-0.08252,-0.01816,9.66913,-0.00532,0.00026,0.00810,0,,,,59.4000,0.0000,0.0000,12.0000,0.0000,0.0000,0
6.9400,0.05629,-0.06842,9.84598,0.00822,-0.00376,0.00126,0,,,,59.6400,0.0000,0.0000,12.0000,0.0000,0.0000,0
6.9600,-0.09249,0.09490,9.75250,0.00704,-0.00195,0.01155,0,,,,59.8800,0.0000,0.0000,12.0000,0.0000,0.0000,0
6.9800,0.09174,-0.07880,9.84417,-0.00444,-0.01747,0.01735,0,,,,60.1200,0.0000,0.0000,12.0000,0.0000,0.0000,0
7.0000,0.06053,-0.04716,9.79954,0.00817,-0.00524,0.00090,0,,,,60.3600,0.0000,0.0000,12.0000,0.0000,0.0000,0
7.0200,0.10790,-0.22536,9.87494,0.00369,0.00012,0.00897,0,,,,60.6000,0.0000,0.0000,12.0000,0.0000,0.0000,0
7.0400,0.19504,0.07336,10.01556,-0.00007,-0.00250,0.00586,0,,,,60.8400,0.0000,0.0000,12.0000,0.0000,0.0000,0
7.0600,-0.05137,-0.01929,9.99352,0.00235,-0.00947,0.00554,0,,,,61.0800,0.0000,0.0000,12.0000,0.0000,0.0000,0
7.0800,0.15752,-0.00701,10.04821,-0.00219,0.00038,0.01355,0,,,,61.3200,0.0000,0.0000,12.0000,0.0000,0.0000,0
7.1000,-0.06629,0.19411,9.75587,0.00459,-0.00939,0.00219,0,,,,61.5600,0.0000,0.0000,12.0000,0.0000,0.0000,0
7.1200,0.15238,-0.03879,9.76430,0.01207,-0.00376,0.00234,0,,,,61.8000,0.0000,0.0000,12.0000,0.0000,0.0000,0
7.1400,0.19851,0.10670,9.69777,-0.00355,-0.01054,0.01249,0,,,,62.0400,0.0000,0.0000,12.0000,0.0000,0.0000,0
7.1600,0.02589,-0.13886,9.82173,0.00785,-0.00977,-0.00360,0,,,,62.2800,0.0000,0.0000,12.0000,0.0000,0.0000,0
7.1800,0.08779,0.13431,9.94106,-0.00448,0.00242,-0.00095,0,,,,62.5200,0.0000,0.0000,12.0000,0.0000,0.0000,0
7.2000,-0.07226,-0.20260,10.07487,0.00707,0.00184,0.01498,0,,,,62.7600,0.0000,0.0000,12.0000,0.0000,0.0000,0
7.2200,0.36633,-0.10244,9.90616,-0.00293,-0.00981,-0.00362,0,,,,63.0000,0.0000,0.0000,12.0000,0.0000,0.0000,0
7.2400,-0.10185,-0.14981,9.92763,0.00241,0.00085,0.00906,0,,,,63.2400,0.0000,0.0000,12.0000,0.0000,0.0000,0
7.2600,0.20612,-0.08236,9.98217,0.00388,-0.01790,-0.00302,0,,,,63.4800,0.0000,0.0000,12.0000,0.0000,0.0000,0
7.2800,-0.20056,0.03569,9.73833,-0.00175,0.01309,0.00939,0,,,,63.7200,0.0000,0.0000,12.0000,0.0000,0.0000,0
7.3000,0.16862,-0.20157,9.66259,0.00229,-0.00162,-0.00985,0,,,,63.9600,0.0000,0.0000,12.0000,0.0000,0.0000,0
7.3200,-0.00427,0.08736,9.78163,-0.00451,-0.00732,0.00359,0,,,,64.2000,0.0000,0.0000,12.0000,0.0000,0.0000,0
7.3400,0.03222,-0.10067,9.97296,-0.00035,-0.00665,0.00850,0,,,,64.4400,0.0000,0.0000,12.0000,0.0000,0.0000,0
7.3600,0.14668,0.04042,10.02120,0.00984,0.00733,0.01923,0,,,,64.6800,0.0000,0.0000,12.0000,0.0000,0.0000,0
7.3800,-0.12177,-0.10538,9.97543,0.00122,-0.00819,-0.00688,0,,,,64.9200,0.0000,0.0000,12.0000,0.0000,0.0000,0
7.4000,0.16154,-0.05439,9.93406,-0.00435,-0.01180,0.00687,0,,,,65.1600,0.0000,0.0000,12.0000,0.0000,0.0000,0
7.4200,-0.06769,0.02388,10.01648,0.00422,0.00088,-0.00362,0,,,,65.4000,0.0000,0.0000,12.0000,0.0000,0.0000,0
7.4400,0.04563,0.04553,9.69031,-0.00635,-0.00331,0.00428,0,,,,65.6400,0.0000,0.0000,12.0000,0.0000,0.0000,0
7.4600,-0.11435,0.03308,9.83524,-0.00445,-0.01415,0.01254,0,,,,65.8800,0.0000,0.0000,12.0000,0.0000,0.0000,0
7.4800,0.12356,-0.19121,9.64793,-0.00396,-0.00344,0.01433,0,,,,66.1200,0.0000,0.0000,12.0000,0.0000,0.0000,0
7.5000,-0.04293,0.08324,9.91066,-0.01705,0.00527,-0.00446,0,,,,66.3600,0.0000,0.0000,12.0000,0.0000,0.0000,0
7.5200,0.02238,-0.12184,10.02556,0.00641,-0.02202,-0.00128,0,,,,66.6000,0.0000,0.0000,12.0000,0.0000,0.0000,0
7.5400,0.13320,0.04188,10.01462,0.00831,0.00187,0.00329,0,,,,66.8400,0.0000,0.0000,12.0000,0.0000,0.0000,0
7.5600,-0.21629,-0.11753,9.98242,-0.00672,0.00205,0.01227,0,,,,67.0800,0.0000,0.0000,12.0000,0.0000,0.0000,0
7.5800,0.16991,-0.26757,9.76944,0.01709,-0.00737,-0.01087,0,,,,67.3200,0.0000,0.0000,12.0000,0.0000,0.0000,0
7.6000,0.02469,0.00815,9.87451,0.00422,0.00067,0.00790,0,,,,67.5600,0.0000,0.0000,12.0000,0.0000,0.0000,0
7.6200,0.18826,0.07570,9.81646,-0.01064,0.00057,0.01413,0,,,,67.8000,0.0000,0.0000,12.0000,0.0000,0.0000,0
7.6400,0.07841,0.04103,9.84853,0.00942,0.01758,-0.00100,0,,,,68.0400,0.0000,0.0000,12.0000,0.0000,0.0000,0
7.6600,0.01445,-0.17354,9.78759,-0.00512,-0.02510,0.00152,0,,,,68.2800,0.0000,0.0000,12.0000,0.0000,0.0000,0
7.6800,0.09939,0.04677,10.06929,0.00211,0.00733,0.00709,0,,,,68.5200,0.0000,0.0000,12.0000,0.0000,0.0000,0
7.7000,0.03558,-0.10474,10.08028,0.00245,0.00097,0.00793,0,,,,68.7600,0.0000,0.0000,12.0000,0.0000,0.0000,0
7.7200,0.11826,0.06670,10.14398,-0.00016,0.00036,0.01506,0,,,,69.0000,0.0000,0.0000,12.0000,0.0000,0.0000,0
7.7400,0.01335,-0.05155,9.71015,0.00613,-0.02076,0.01676,0,,,,69.2400,0.0000,0.0000,12.0000,0.0000,0.0000,0
7.7600,0.17143,0.02749,9.74031,-0.01042,-0.00091,0.00473,0,,,,69.4800,0.0000,0.0000,12.0000,0.0000,0.0000,0
7.7800,-0.10064,0.04107,9.96947,0.00868,0.00540,0.01175,0,,,,69.7200,0.0000,0.0000,12.0000,0.0000,0.0000,0
7.8000,0.22889,-0.14229,9.57814,0.00049,0.00349,-0.00276,0,,,,69.9600,0.0000,0.0000,12.0000,0.0000,0.0000,0
7.8200,-0.00395,0.03089,9.91900,0.00800,0.00221,0.00997,0,,,,70.2000,0.0000,0.0000,12.0000,0.0000,0.0000,0
7.8400,0.02198,-0.13325,9.79168,-0.01549,-0.00180,0.00759,0,,,,70.4400,0.0000,0.0000,12.0000,0.0000,0.0000,0
7.8600,0.19455,0.20086,10.08357,-0.00598,-0.00582,0.00884,0,,,,70.6800,0.0000,0.0000,12.0000,0.0000,0.0000,0
7.8800,0.15009,0.01192,10.06408,-0.00110,-0.01007,0.01131,0,,,,70.9200,0.0000,0.0000,12.0000,0.0000,0.0000,0
7.9000,0.06607,-0.01199,9.91800,0.01474,-0.00584,-0.01451,0,,,,71.1600,0.0000,0.0000,12.0000,0.0000,0.0000,0
7.9200,-0.03941,-0.07839,9.84502,0.00131,-0.00519,0.01132,0,,,,71.4000,0.0000,0.0000,12.0000,0.0000,0.0000,0
7.9400,0.02595,-0.12245,9.81891,-0.00291,-0.01587,0.01035,0,,,,71.6400,0.0000,0.0000,12.0000,0.0000,0.0000,0
7.9600,0.04770,0.05388,9.58002,0.00765,-0.01628,0.00747,0,,,,71.8800,0.0000,0.0000,12.0000,0.0000,0.0000,0
7.9800,0.01318,-0.23436,9.73915,0.00053,-0.00815,0.00971,0,,,,72.1200,0.0000,0.0000,12.0000,0.0000,0.0000,0
8.0000,0.00431,0.16842,9.87914,-0.00358,-0.00993,-0.00818,0,,,,72.3600,0.0000,0.0000,12.0000,0.0000,0.0000,0
8.0200,0.01908,-0.16994,9.74902,-0.00229,-0.01021,0.01761,0,,,,72.6000,0.0000,0.0000,12.0000,0.0000,0.0000,0
8.0400,-0.01408,-0.05783,10.06521,0.01285,-0.00896,-0.00006,0,,,,72.8400,0.0000,0.0000,12.0000,0.0000,0.0000,0
8.0600,-0.01928,-0.26726,9.80022,-0.00025,0.00940,0.00151,0,,,,73.0800,0.0000,0.0000,12.0000,0.0000,0.0000,0
8.0800,0.16784,0.06824,10.04024,-0.00261,-0.00313,0.01958,0,,,,73.3200,0.0000,0.0000,12.0000,0.0000,0.0000,0
8.1000,-0.19590,0.08929,9.70465,0.00282,-0.00494,-0.00266,0,,,,73.5600,0.0000,0.0000,12.0000,0.0000,0.0000,0
8.1200,0.05381,-0.08438,9.81842,0.00096,-0.00244,0.00957,0,,,,73.8000,0.0000,0.0000,12.0000,0.0000,0.0000,0
8.1400,-0.09554,0.13433,9.82088,0.02283,-0.00601,0.00134,0,,,,74.0400,0.0000,0.0000,12.0000,0.0000,0.0000,0
8.1600,0.11656,-0.08353,9.78400,-0.00123,0.00133,-0.00162,0,,,,74.2800,0.0000,0.0000,12.0000,0.0000,0.0000,0
8.1800,0.03700,0.09340,9.99414,-0.00284,-0.01774,-0.01033,0,,,,74.5200,0.0000,0.0000,12.0000,0.0000,0.0000,0
8.2000,-0.13129,-0.23214,9.95841,-0.00751,-0.00862,-0.00119,0,,,,74.7600,0.0000,0.0000,12.0000,0.0000,0.0000,0
8.2200,0.10608,0.14010,10.01819,0.00213,-0.00669,0.00153,0,,,,75.0000,0.0000,0.0000,12.0000,0.0000,0.0000,0
8.2400,-0.05165,-0.00575,9.82822,0.00229,-0.01925,0.00669,0,,,,75.2400,0.0000,0.0000,12.0000,0.0000,0.0000,0
8.2600,0.21885,-0.07489,9.95780,-0.00505,-0.00126,0.00471,0,,,,75.4800,0.0000,0.0000,12.0000,0.0000,0.0000,0
8.2800,-0.06934,0.02515,9.75664,0.00878,0.00802,0.00498,0,,,,75.7200,0.0000,0.0000,12.0000,0.0000,0.0000,0
8.3000,0.17576,-0.18322,9.80380,-0.00410,0.00573,0.02269,0,,,,75.9600,0.0000,0.0000,12.0000,0.0000,0.0000,0
8.3200,0.00039,-0.08917,9.75499,0.01186,0.00142,0.00699,0,,,,76.2000,0.0000,0.0000,12.0000,0.0000,0.0000,0
8.3400,0.10565,-0.11030,9.98391,0.00936,0.00917,0.00787,0,,,,76.4400,0.0000,0.0000,12.0000,0.0000,0.0000,0
8.3600,0.17023,0.05059,9.90985,0.01565,-0.00127,0.01144,0,,,,76.6800,0.0000,0.0000,12.0000,0.0000,0.0000,0
8.3800,-0.04256,-0.15341,9.97540,0.01349,0.00144,-0.00869,0,,,,76.9200,0.0000,0.0000,12.0000,0.0000,0.0000,0
8.4000,0.13691,0.14967,9.91008,-0.01240,0.01214,0.01046,0,,,,77.1600,0.0000,0.0000,12.0000,0.0000,0.0000,0
8.4200,-0.08536,-0.05218,9.92820,-0.00234,0.00619,0.00934,0,,,,77.4000,0.0000,0.0000,12.0000,0.0000,0.0000,0
8.4400,0.16815,-0.06945,9.75019,0.01037,-0.00992,-0.00798,0,,,,77.6400,0.0000,0.0000,12.0000,0.0000,0.0000,0
8.4600,0.00701,0.10798,9.77531,0.00526,-0.00556,0.01130,0,,,,77.8800,0.0000,0.0000,12.0000,0.0000,0.0000,0
8.4800,0.08053,-0.18054,9.74955,0.01817,-0.01688,0.00900,0,,,,78.1200,0.0000,0.0000,12.0000,0.0000,0.0000,0
8.5000,-0.09433,0.08134,9.82196,-0.01468,0.00011,0.00196,0,,,,78.3600,0.0000,0.0000,12.0000,0.0000,0.0000,0
8.5200,-0.17211,-0.07441,10.05360,0.01392,-0.00013,0.00537,0,,,,78.6000,0.0000,0.0000,12.0000,0.0000,0.0000,0
8.5400,0.22840,0.19207,10.06710,-0.00553,-0.00139,0.00852,0,,,,78.8400,0.0000,0.0000,12.0000,0.0000,0.0000,0
8.5600,-0.21335,-0.04354,10.13095,0.00712,0.00879,0.00646,0,,,,79.0800,0.0000,0.0000,12.0000,0.0000,0.0000,0
8.5800,0.15391,0.00804,9.80642,-0.00571,0.00713,0.01598,0,,,,79.3200,0.0000,0.0000,12.0000,0.0000,0.0000,0
8.6000,-0.15342,0.08452,9.77916,0.00472,0.00068,0.01295,0,,,,79.5600,0.0000,0.0000,12.0000,0.0000,0.0000,0
8.6200,0.13908,0.00632,9.76353,0.00699,-0.00967,0.02227,0,,,,79.8000,0.0000,0.0000,12.0000,0.0000,0.0000,0
8.6400,0.01978,0.13220,9.62668,-0.00458,0.00690,0.00730,0,,,,80.0400,0.0000,0.0000,12.0000,0.0000,0.0000,0
8.6600,-0.09806,-0.06599,9.78330,0.01329,-0.00370,0.00664,0,,,,80.2800,0.0000,0.0000,12.0000,0.0000,0.0000,0
8.6800,0.16416,0.01443,9.83503,0.00043,0.00362,-0.00565,0,,,,80.5200,0.0000,0.0000,12.0000,0.0000,0.0000,0
8.7000,-0.16398,-0.06118,9.92254,-0.00114,-0.01785,-0.00043,0,,,,80.7600,0.0000,0.0000,12.0000,0.0000,0.0000,0
8.7200,0.14071,0.10873,9.90353,0.01526,-0.00848,-0.00046,0,,,,81.0000,0.0000,0.0000,12.0000,0.0000,0.0000,0
8.7400,0.04511,-0.03557,9.85666,0.00076,0.00782,0.01673,0,,,,81.2400,0.0000,0.0000,12.0000,0.0000,0.0000,0
8.7600,0.09253,-0.05588,9.81969,-0.00589,-0.00345,0.00504,0,,,,81.4800,0.0000,0.0000,12.0000,0.0000,0.0000,0
8.7800,0.02990,0.13089,9.72173,0.00029,0.00231,0.00032,0,,,,81.7200,0.0000,0.0000,12.0000,0.0000,0.0000,0
8.8000,0.15763,-0.13411,9.66497,-0.00565,0.00858,0.00375,0,,,,81.9600,0.0000,0.0000,12.0000,0.0000,0.0000,0
8.8200,0.14139,0.04514,9.82214,0.02114,-0.01146,-0.01018,0,,,,82.2000,0.0000,0.0000,12.0000,0.0000,0.0000,0
8.8400,0.12789,-0.21520,9.88484,-0.00269,-0.00085,-0.00260,0,,,,82.4400,0.0000,0.0000,12.0000,0.0000,0.0000,0
8.8600,0.08342,0.11114,9.87730,-0.00360,-0.00578,-0.00643,0,,,,82.6800,0.0000,0.0000,12.0000,0.0000,0.0000,0
8.8800,-0.08627,-0.09699,9.94256,-0.00017,-0.00316,-0.00025,0,,,,82.9200,0.0000,0.0000,12.0000,0.0000,0.0000,0
8.9000,0.20941,0.12196,9.89003,0.00588,-0.00492,0.00792,0,,,,83.1600,0.0000,0.0000,12.0000,0.0000,0.0000,0
8.9200,0.04550,0.01823,9.69974,0.00563,0.00686,0.00323,0,,,,83.4000,0.0000,0.0000,12.0000,0.0000,0.0000,0
8.9400,0.22823,-0.13630,9.64535,0.00313,-0.01705,0.00308,0,,,,83.6400,0.0000,0.0000,12.0000,0.0000,0.0000,0
8.9600,0.06080,-0.09530,9.63453,-0.00626,-0.00351,0.00207,0,,,,83.8800,0.0000,0.0000,12.0000,0.0000,0.0000,0
8.9800,0.19611,-0.06523,9.81413,0.00317,0.00015,-0.00190,0,,,,84.1200,0.0000,0.0000,12.0000,0.0000,0.0000,0
9.0000,0.10858,0.00104,9.92348,0.01149,-0.00131,0.00359,0,,,,84.3600,0.0000,0.0000,12.0000,0.0000,0.0000,0
9.0200,0.02785,-0.37049,9.96298,0.00109,-0.00341,0.01065,0,,,,84.6000,0.0000,0.0000,12.0000,0.0000,0.0000,0
9.0400,0.11616,-0.03374,9.96510,0.00254,-0.00208,0.00630,0,,,,84.8400,0.0000,0.0000,12.0000,0.0000,0.0000,0
9.0600,0.01457,-0.16798,9.96317,0.01232,-0.01688,0.00644,0,,,,85.0800,0.0000,0.0000,12.0000,0.0000,0.0000,0
9.0800,0.11293,-0.05212,9.79931,0.00064,0.01173,-0.00512,0,,,,85.3200,0.0000,0.0000,12.0000,0.0000,0.0000,0
9.1000,-0.16770,-0.09707,9.92431,-0.00170,-0.00321,0.00178,0,,,,85.5600,0.0000,0.0000,12.0000,0.0000,0.0000,0
9.1200,0.05691,-0.12530,9.93544,0.01314,-0.00982,0.01018,0,,,,85.8000,0.0000,0.0000,12.0000,0.0000,0.0000,0
9.1400,-0.08433,-0.06695,9.83689,0.01128,0.00537,0.00124,0,,,,86.0400,0.0000,0.0000,12.0000,0.0000,0.0000,0
9.1600,0.04170,-0.08907,9.85813,-0.00115,-0.01595,0.00591,0,,,,86.2800,0.0000,0.0000,12.0000,0.0000,0.0000,0
9.1800,0.15616,-0.00958,9.96556,0.00465,0.00300,0.01198,0,,,,86.5200,0.0000,0.0000,12.0000,0.0000,0.0000,0
9.2000,-0.08609,-0.25644,9.92810,0.00911,-0.00734,-0.00055,0,,,,86.7600,0.0000,0.0000,12.0000,0.0000,0.0000,0
9.2200,-0.00439,0.17451,10.03129,0.00816,0.00474,0.00961,0,,,,87.0000,0.0000,0.0000,12.0000,0.0000,0.0000,0
9.2400,-0.09742,-0.06559,9.86662,0.02308,0.00145,0.00129,0,,,,87.2400,0.0000,0.0000,12.0000,0.0000,0.0000,0
9.2600,0.19511,-0.13336,9.93284,-0.00329,0.00101,0.01353,0,,,,87.4800,0.0000,0.0000,12.0000,0.0000,0.0000,0
9.2800,-0.03054,0.04186,9.74893,0.00155,-0.00761,0.00140,0,,,,87.7200,0.0000,0.0000,12.0000,0.0000,0.0000,0
9.3000,0.22890,-0.13576,9.67966,-0.00213,0.00580,0.01040,0,,,,87.9600,0.0000,0.0000,12.0000,0.0000,0.0000,0
9.3200,0.05498,0.06563,9.84471,-0.00315,-0.00508,0.01276,0,,,,88.2000,0.0000,0.0000,12.0000,0.0000,0.0000,0
9.3400,0.09490,-0.22761,9.81805,0.00287,0.01081,-0.01032,0,,,,88.4400,0.0000,0.0000,12.0000,0.0000,0.0000,0
9.3600,0.12008,-0.03493,9.90722,-0.00092,-0.00636,0.00073,0,,,,88.6800,0.0000,0.0000,12.0000,0.0000,0.0000,0
9.3800,-0.05189,-0.14931,9.85753,0.00824,0.00302,0.01175,0,,,,88.9200,0.0000,0.0000,12.0000,0.0000,0.0000,0
9.4000,0.03087,0.03100,9.98126,-0.00625,-0.00293,0.00407,0,,,,89.1600,0.0000,0.0000,12.0000,0.0000,0.0000,0
9.4200,0.06761,0.13149,9.70846,0.02195,-0.01032,0.01285,0,,,,89.4000,0.0000,0.0000,12.0000,0.0000,0.0000,0
9.4400,0.22622,-0.16075,9.80365,0.00114,0.00143,0.00685,0,,,,89.6400,0.0000,0.0000,12.0000,0.0000,0.0000,0
9.4600,0.05356,0.06351,9.72346,0.01077,0.00164,0.01085,0,,,,89.8800,0.0000,0.0000,12.0000,0.0000,0.0000,0
9.4800,0.03101,-0.22519,9.72909,-0.00297,0.00329,0.01281,0,,,,90.1200,0.0000,0.0000,12.0000,0.0000,0.0000,0
9.5000,0.02759,0.20447,9.96613,0.00395,-0.00958,0.01760,0,,,,90.3600,0.0000,0.0000,12.0000,0.0000,0.0000,0
9.5200,-0.00906,-0.13148,9.91163,-0.00512,-0.01475,0.01006,0,,,,90.6000,0.0000,0.0000,12.0000,0.0000,0.0000,0
9.5400,0.05947,0.30224,9.88953,-0.00806,0.00108,0.01723,0,,,,90.8400,0.0000,0.0000,12.0000,0.0000,0.0000,0
9.5600,-0.06341,-0.03531,9.80163,-0.00342,-0.01159,-0.01016,0,,,,91.0800,0.0000,0.0000,12.0000,0.0000,0.0000,0
9.5800,0.16912,-0.20189,9.76591,-0.00230,-0.00965,0.00817,0,,,,91.3200,0.0000,0.0000,12.0000,0.0000,0.0000,0
9.6000,-0.04968,0.07859,9.84631,0.01113,-0.00302,0.00743,0,,,,91.5600,0.0000,0.0000,12.0000,0.0000,0.0000,0
9.6200,0.17338,-0.09516,9.70700,-0.00066,-0.00954,0.00837,0,,,,91.8000,0.0000,0.0000,12.0000,0.0000,0.0000,0
9.6400,-0.02533,0.02210,9.70235,-0.00768,0.00483,0.00563,0,,,,92.0400,0.0000,0.0000,12.0000,0.0000,0.0000,0
9.6600,-0.01398,-0.08437,9.78197,-0.00925,0.00517,0.00070,0,,,,92.2800,0.0000,0.0000,12.0000,0.0000,0.0000,0
9.6800,0.03713,0.08952,10.00587,0.00216,-0.01259,0.00935,0,,,,92.5200,0.0000,0.0000,12.0000,0.0000,0.0000,0
9.7000,-0.06933,0.02395,9.97069,-0.01588,-0.00014,0.02056,0,,,,92.7600,0.0000,0.0000,12.0000,0.0000,0.0000,0
9.7200,0.26739,0.18078,9.88365,0.00930,-0.00878,0.00679,0,,,,93.0000,0.0000,0.0000,12.0000,0.0000,0.0000,0
9.7400,-0.17971,-0.10404,9.84673,0.00919,0.00341,0.00721,0,,,,93.2400,0.0000,0.0000,12.0000,0.0000,0.0000,0
9.7600,0.04984,-0.07742,9.75279,0.00896,0.00643,0.01345,0,,,,93.4800,0.0000,0.0000,12.0000,0.0000,0.0000,0
9.7800,-0.12174,-0.18486,9.60671,0.01337,-0.00621,-0.00101,0,,,,93.7200,0.0000,0.0000,12.0000,0.0000,0.0000,0
9.8000,0.24195,-0.02587,9.74448,-0.00035,-0.00406,0.00682,0,,,,93.9600,0.0000,0.0000,12.0000,0.0000,0.0000,0
9.8200,0.13816,0.12003,9.85692,0.01135,-0.01236,0.01104,0,,,,94.2000,0.0000,0.0000,12.0000,0.0000,0.0000,0
9.8400,0.00139,-0.35034,9.71624,-0.00614,0.00125,0.00591,0,,,,94.4400,0.0000,0.0000,12.0000,0.0000,0.0000,0
9.8600,0.11256,0.23123,9.85644,0.00178,-0.00056,-0.00089,0,,,,94.6800,0.0000,0.0000,12.0000,0.0000,0.0000,0
9.8800,-0.05020,-0.23449,10.08732,-0.00345,0.01325,0.00474,0,,,,94.9200,0.0000,0.0000,12.0000,0.0000,0.0000,0
9.9000,0.23637,0.00282,9.92472,-0.00267,-0.00205,0.00754,0,,,,95.1600,0.0000,0.0000,12.0000,0.0000,0.0000,0
9.9200,-0.14250,-0.03247,9.79280,0.02040,-0.00372,0.01736,0,,,,95.4000,0.0000,0.0000,12.0000,0.0000,0.0000,0
9.9400,0.13293,-0.06035,9.65848,-0.00158,-0.00132,0.01769,0,,,,95.6400,0.0000,0.0000,12.0000,0.0000,0.0000,0
9.9600,-0.02439,0.16817,9.78815,0.01502,-0.00347,0.02412,0,,,,95.8800,0.0000,0.0000,12.0000,0.0000,0.0000,0
9.9800,0.04534,-0.20289,9.67770,0.02065,0.00356,0.00233,0,,,,96.1200,0.0000,0.0000,12.0000,0.0000,0.0000,0
10.0000,0.13992,0.14502,10.01394,-0.01038,-0.00512,0.00130,0,,,,96.3600,0.0000,0.0000,12.0000,0.0000,0.0000,0
10.0200,-0.16207,-0.05675,9.91716,0.00792,0.01588,0.00217,0,,,,96.6000,0.0000,0.0000,12.0000,0.0000,0.0000,0
10.0400,0.08845,0.06697,10.05539,-0.00253,-0.00805,0.01346,0,,,,96.8400,0.0000,0.0000,12.0000,0.0000,0.0000,0
10.0600,-0.03829,-0.24467,9.85108,0.01401,0.00022,-0.00110,0,,,,97.0800,0.0000,0.0000,12.0000,0.0000,0.0000,0
10.0800,0.14613,-0.02141,9.93055,-0.00887,-0.00973,0.00718,0,,,,97.3200,0.0000,0.0000,12.0000,0.0000,0.0000,0
10.1000,-0.08211,0.05283,9.68776,0.00486,0.00573,0.00889,0,,,,97.5600,0.0000,0.0000,12.0000,0.0000,0.0000,0
10.1200,0.14359,-0.11416,9.67199,0.00142,0.00708,0.00405,0,,,,97.8000,0.0000,0.0000,12.0000,0.0000,0.0000,0
10.1400,-0.08899,0.03578,9.77140,-0.00099,0.00088,0.00918,0,,,,98.0400,0.0000,0.0000,12.0000,0.0000,0.0000,0
10.1600,0.12616,-0.03517,9.90648,-0.00547,-0.01023,0.00439,0,,,,98.2800,0.0000,0.0000,12.0000,0.0000,0.0000,0
10.1800,0.03375,-0.00484,9.87913,-0.00180,-0.00837,0.00247,0,,,,98.5200,0.0000,0.0000,12.0000,0.0000,0.0000,0
10.2000,0.06374,-0.11114,10.16852,0.00336,-0.00532,0.00503,0,,,,98.7600,0.0000,0.0000,12.0000,0.0000,0.0000,0
10.2200,0.16184,0.06912,10.13137,-0.00476,0.00387,0.00666,0,,,,99.0000,0.0000,0.0000,12.0000,0.0000,0.0000,0
10.2400,-0.20356,0.00917,10.00223,-0.00486,-0.00307,-0.00880,0,,,,99.2400,0.0000,0.0000,12.0000,0.0000,0.0000,0
10.2600,0.05717,0.03136,9.77516,-0.00687,-0.00116,0.00082,0,,,,99.4800,0.0000,0.0000,12.0000,0.0000,0.0000,0
10.2800,-0.09899,0.09345,9.65513,-0.00524,-0.00177,0.01276,0,,,,99.7200,0.0000,0.0000,12.0000,0.0000,0.0000,0
10.3000,0.20959,-0.18029,9.81751,-0.00427,0.01161,-0.00407,0,,,,99.9600,0.0000,0.0000,12.0000,0.0000,0.0000,0
10.3200,0.11644,0.03371,9.95990,0.00673,-0.01113,0.00082,0,,,,100.2000,0.0000,0.0000,12.0000,0.0000,0.0000,0
10.3400,0.08745,-0.06484,9.88084,0.00236,0.00307,0.00605,0,,,,100.4400,0.0000,0.0000,12.0000,0.0000,0.0000,0
10.3600,-0.00567,0.01012,9.97678,0.01172,0.00993,0.01124,0,,,,100.6800,0.0000,0.0000,12.0000,0.0000,0.0000,0
10.3800,-0.02948,-0.04659,9.92118,0.00077,-0.00959,-0.00499,0,,,,100.9200,0.0000,0.0000,12.0000,0.0000,0.0000,0
10.4000,0.18081,0.02192,9.98220,0.00637,-0.00106,0.00945,0,,,,101.1600,0.0000,0.0000,12.0000,0.0000,0.0000,0
10.4200,-0.08318,0.01057,9.78352,0.00496,0.00235,-0.00036,0,,,,101.4000,0.0000,0.0000,12.0000,0.0000,0.0000,0
10.4400,0.15273,-0.13098,9.72207,-0.00700,0.00713,0.01353,0,,,,101.6400,0.0000,0.0000,12.0000,0.0000,0.0000,0
10.4600,0.00085,0.21525,9.72175,0.02625,-0.00482,0.00704,0,,,,101.8800,0.0000,0.0000,12.0000,0.0000,0.0000,0
10.4800,0.05235,-0.11179,9.84135,0.00109,0.01121,0.00691,0,,,,102.1200,0.0000,0.0000,12.0000,0.0000,0.0000,0
10.5000,0.06164,0.01728,9.89013,0.00093,-0.00787,-0.00121,0,,,,102.3600,0.0000,0.0000,12.0000,0.0000,0.0000,0
10.5200,0.20957,-0.16265,9.82224,-0.00359,-0.00341,0.00937,0,,,,102.6000,0.0000,0.0000,12.0000,0.0000,0.0000,0
10.5400,0.16653,0.11161,9.92482,0.00472,-0.01001,0.00004,0,,,,102.8400,0.0000,0.0000,12.0000,0.0000,0.0000,0
10.5600,-0.14200,-0.17616,10.03425,0.00751,0.00481,0.00531,0,,,,103.0800,0.0000,0.0000,12.0000,0.0000,0.0000,0
10.5800,0.22191,-0.16337,9.94074,0.00342,0.00202,0.00804,0,,,,103.3200,0.0000,0.0000,12.0000,0.0000,0.0000,0
10.6000,-0.15309,-0.11276,9.72915,0.00652,0.00252,-0.00594,0,,,,103.5600,0.0000,0.0000,12.0000,0.0000,0.0000,0
10.6200,0.05397,-0.16435,9.71019,-0.00890,-0.01438,-0.00157,0,,,,103.8000,0.0000,0.0000,12.0000,0.0000,0.0000,0
10.6400,-0.01091,-0.01929,9.74607,0.01047,-0.01341,0.00335,0,,,,104.0400,0.0000,0.0000,12.0000,0.0000,0.0000,0
10.6600,0.13702,-0.18252,9.78091,0.01131,-0.00545,0.01384,0,,,,104.2800,0.0000,0.0000,12.0000,0.0000,0.0000,0
10.6800,0.10416,0.05880,9.95284,0.00456,0.00517,0.00061,0,,,,104.5200,0.0000,0.0000,12.0000,0.0000,0.0000,0
10.7000,-0.02724,-0.13200,10.02711,-0.00620,0.00514,0.00873,0,,,,104.7600,0.0000,0.0000,12.0000,0.0000,0.0000,0
10.7200,0.03597,0.13096,10.14396,0.01001,0.00842,0.00568,0,,,,105.0000,0.0000,0.0000,12.0000,0.0000,0.0000,0
10.7400,-0.21079,-0.20002,9.92123,-0.00274,-0.01032,0.00450,0,,,,105.2400,0.0000,0.0000,12.0000,0.0000,0.0000,0
10.7600,0.20712,-0.16871,9.77656,0.01408,-0.01160,0.01196,0,,,,105.4800,0.0000,0.0000,12.0000,0.0000,0.0000,0
10.7800,-0.10010,0.07796,9.83586,0.00793,0.00427,-0.00421,0,,,,105.7200,0.0000,0.0000,12.0000,0.0000,0.0000,0
10.8000,0.19963,-0.19530,9.76329,0.00407,0.00088,0.00770,0,,,,105.9600,0.0000,0.0000,12.0000,0.0000,0.0000,0
10.8200,-0.05735,-0.02176,9.86863,0.00349,0.00620,0.00464,0,,,,106.2000,0.0000,0.0000,12.0000,0.0000,0.0000,0
10.8400,-0.08745,-0.07176,9.85686,0.00474,-0.00818,0.01815,0,,,,106.4400,0.0000,0.0000,12.0000,0.0000,0.0000,0
10.8600,0.02769,0.04816,9.96657,-0.00674,-0.00036,0.01790,0,,,,106.6800,0.0000,0.0000,12.0000,0.0000,0.0000,0
10.8800,-0.09170,-0.07488,9.75457,0.00169,-0.00550,-0.00155,0,,,,106.9200,0.0000,0.0000,12.0000,0.0000,0.0000,0
10.9000,0.24064,-0.01902,9.91299,-0.00102,-0.01833,-0.00406,0,,,,107.1600,0.0000,0.0000,12.0000,0.0000,0.0000,0
10.9200,-0.00288,-0.19126,9.78030,-0.00120,0.01095,0.01115,0,,,,107.4000,0.0000,0.0000,12.0000,0.0000,0.0000,0
10.9400,0.10401,0.02327,9.70495,0.01007,-0.01387,0.01359,0,,,,107.6400,0.0000,0.0000,12.0000,0.0000,0.0000,0
10.9600,-0.07464,-0.02480,9.71952,0.00422,-0.00696,0.00943,0,,,,107.8800,0.0000,0.0000,12.0000,0.0000,0.0000,0
10.9800,0.03754,-0.09194,9.80988,0.00151,-0.00653,0.00621,0,,,,108.1200,0.0000,0.0000,12.0000,0.0000,0.0000,0
11.0000,0.08402,0.25494,9.93180,0.00981,0.02171,0.00913,0,,,,108.3600,0.0000,0.0000,12.0000,0.0000,0.0000,0
11.0200,0.03460,-0.08525,9.85808,-0.00155,-0.00705,0.01018,0,,,,108.6000,0.0000,0.0000,12.0000,0.0000,0.0000,0
11.0400,0.10821,0.06853,10.06341,0.00891,-0.00429,-0.00036,0,,,,108.8400,0.0000,0.0000,12.0000,0.0000,0.0000,0
11.0600,0.02224,-0.01918,9.82061,-0.00051,-0.00168,0.01123,0,,,,109.0800,0.0000,0.0000,12.0000,0.0000,0.0000,0
11.0800,0.23257,0.00025,9.91851,0.00251,-0.00839,0.00291,0,,,,109.3200,0.0000,0.0000,12.0000,0.0000,0.0000,0
11.1000,-0.07261,0.00431,9.63527,-0.00118,-0.00255,0.00275,0,,,,109.5600,0.0000,0.0000,12.0000,0.0000,0.0000,0
11.1200,0.11272,-0.06745,9.65246,-0.01102,-0.00579,0.01111,0,,,,109.8000,0.0000,0.0000,12.0000,0.0000,0.0000,0
11.1400,0.11719,0.13773,9.63787,0.00014,-0.00095,0.00642,0,,,,110.0400,0.0000,0.0000,12.0000,0.0000,0.0000,0
11.1600,0.09818,-0.22242,9.83200,0.00536,0.00361,-0.00145,0,,,,110.2800,0.0000,0.0000,12.0000,0.0000,0.0000,0
11.1800,0.04223,-0.13008,9.86474,-0.00220,-0.01116,0.00632,0,,,,110.5200,0.0000,0.0000,12.0000,0.0000,0.0000,0
11.2000,-0.03501,-0.30782,9.98802,-0.00543,0.00089,-0.00525,0,,,,110.7600,0.0000,0.0000,12.0000,0.0000,0.0000,0
11.2200,0.14372,0.01165,9.98948,0.00300,-0.00504,-0.00729,0,,,,111.0000,0.0000,0.0000,12.0000,0.0000,0.0000,0
11.2400,-0.19605,-0.09920,9.90016,-0.00287,0.00200,0.00277,0,,,,111.2400,0.0000,0.0000,12.0000,0.0000,0.0000,0
11.2600,0.08067,-0.07473,9.83054,0.00460,0.01203,-0.00035,0,,,,111.4800,0.0000,0.0000,12.0000,0.0000,0.0000,0
11.2800,-0.06720,0.06839,9.74620,-0.00200,-0.01539,0.00091,0,,,,111.7200,0.0000,0.0000,12.0000,0.0000,0.0000,0
11.3000,0.02464,-0.26521,9.67887,-0.00638,0.00167,0.00981,0,,,,111.9600,0.0000,0.0000,12.0000,0.0000,0.0000,0
11.3200,-0.06215,0.06541,9.65018,-0.00195,0.00019,0.01160,0,,,,112.2000,0.0000,0.0000,12.0000,0.0000,0.0000,0
11.3400,-0.03208,-0.06491,9.76524,-0.00798,0.00268,0.01837,0,,,,112.4400,0.0000,0.0000,12.0000,0.0000,0.0000,0
11.3600,0.13728,0.07193,9.78235,-0.01418,-0.00196,0.00214,0,,,,112.6800,0.0000,0.0000,12.0000,0.0000,0.0000,0
11.3800,-0.14093,-0.10125,9.98373,0.00956,-0.00191,0.01483,0,,,,112.9200,0.0000,0.0000,12.0000,0.0000,0.0000,0
11.4000,0.15477,-0.00214,10.01233,-0.00583,0.01952,0.00800,0,,,,113.1600,0.0000,0.0000,12.0000,0.0000,0.0000,0
11.4200,-0.04930,0.01954,9.99178,0.00834,-0.01584,0.01623,0,,,,113.4000,0.0000,0.0000,12.0000,0.0000,0.0000,0
11.4400,0.12131,-0.07252,9.66185,0.00621,-0.00821,0.00580,0,,,,113.6400,0.0000,0.0000,12.0000,0.0000,0.0000,0
11.4600,-0.06487,0.21148,9.89547,0.00237,-0.00249,0.00201,0,,,,113.8800,0.0000,0.0000,12.0000,0.0000,0.0000,0
11.4800,0.17266,-0.16789,9.74080,0.00983,-0.00731,0.00470,0,,,,114.1200,0.0000,0.0000,12.0000,0.0000,0.0000,0
11.5000,-0.08650,0.14634,10.01192,0.00777,0.00869,-0.00177,0,,,,114.3600,0.0000,0.0000,12.0000,0.0000,0.0000,0
11.5200,0.01473,-0.21703,9.92057,0.00818,-0.00219,-0.00630,0,,,,114.6000,0.0000,0.0000,12.0000,0.0000,0.0000,0
11.5400,0.01694,-0.05302,10.01573,0.01851,0.00790,-0.01017,0,,,,114.8400,0.0000,0.0000,12.0000,0.0000,0.0000,0
11.5600,0.04511,-0.00618,9.82549,-0.00043,0.00576,0.00940,0,,,,115.0800,0.0000,0.0000,12.0000,0.0000,0.0000,0
11.5800,0.05504,0.02639,9.70069,0.00022,0.00610,0.00515,0,,,,115.3200,0.0000,0.0000,12.0000,0.0000,0.0000,0
11.6000,-0.11404,0.07823,9.86410,0.01248,0.00399,0.01365,0,,,,115.5600,0.0000,0.0000,12.0000,0.0000,0.0000,0
11.6200,0.19109,-0.08525,9.74594,0.00010,-0.01270,-0.00264,0,,,,115.8000,0.0000,0.0000,12.0000,0.0000,0.0000,0
11.6400,-0.04037,0.09447,9.87060,0.00167,0.00503,0.01363,0,,,,116.0400,0.0000,0.0000,12.0000,0.0000,0.0000,0
11.6600,0.03652,-0.10148,9.80732,0.01258,0.00209,-0.00452,0,,,,116.2800,0.0000,0.0000,12.0000,0.0000,0.0000,0
11.6800,0.08276,0.21808,9.89996,0.00558,0.00137,-0.00329,0,,,,116.5200,0.0000,0.0000,12.0000,0.0000,0.0000,0
11.7000,0.01032,-0.23859,9.92073,0.01061,-0.00015,0.00256,0,,,,116.7600,0.0000,0.0000,12.0000,0.0000,0.0000,0
11.7200,0.17704,0.02949,9.96624,0.00725,-0.00882,0.00532,0,,,,117.0000,0.0000,0.0000,12.0000,0.0000,0.0000,0
11.7400,-0.10286,-0.17933,9.82719,0.01455,0.00008,-0.00559,0,,,,117.2400,0.0000,0.0000,12.0000,0.0000,0.0000,0
11.7600,0.03465,-0.06146,9.93737,0.00051,0.00746,0.00782,0,,,,117.4800,0.0000,0.0000,12.0000,0.0000,0.0000,0
11.7800,-0.02362,-0.07256,9.82307,-0.00068,0.00390,-0.00151,0,,,,117.7200,0.0000,0.0000,12.0000,0.0000,0.0000,0
11.8000,0.12470,-0.09892,9.73020,0.00524,-0.00513,-0.00019,0,,,,117.9600,0.0000,0.0000,12.0000,0.0000,0.0000,0
11.8200,0.13860,0.17015,9.73797,0.00655,-0.00894,-0.00448,0,,,,118.2000,0.0000,0.0000,12.0000,0.0000,0.0000,0
11.8400,0.10766,-0.28538,9.96064,-0.00002,-0.00469,0.00828,0,,,,118.4400,0.0000,0.0000,12.0000,0.0000,0.0000,0
11.8600,0.14431,0.00905,10.01539,0.00291,-0.01305,0.00364,0,,,,118.6800,0.0000,0.0000,12.0000,0.0000,0.0000,0
11.8800,0.05804,0.02764,10.03191,-0.00752,0.00092,0.01181,0,,,,118.9200,0.0000,0.0000,12.0000,0.0000,0.0000,0
11.9000,0.21218,0.06988,9.95625,0.00142,-0.00787,-0.01018,0,,,,119.1600,0.0000,0.0000,12.0000,0.0000,0.0000,0
11.9200,-0.05259,-0.00758,9.88622,-0.00870,0.00216,0.02144,0,,,,119.4000,0.0000,0.0000,12.0000,0.0000,0.0000,0
11.9400,0.15486,-0.08603,9.78891,0.01826,-0.01119,0.00663,0,,,,119.6400,0.0000,0.0000,12.0000,0.0000,0.0000,0
11.9600,-0.10612,0.01372,9.73292,0.01278,0.01141,0.00859,0,,,,119.8800,0.0000,0.0000,12.0000,0.0000,0.0000,0
11.9800,0.05405,0.05785,9.74030,-0.00257,-0.01720,0.01617,0,,,,120.1200,0.0000,0.0000,12.0000,0.0000,0.0000,0
12.0000,0.11746,0.28342,9.74549,0.01367,-0.00244,0.01145,0,,,,120.3600,0.0000,0.0000,12.0000,0.0000,0.0000,0
12.0200,-0.13600,-0.02413,10.00172,0.00169,0.00216,-0.00112,0,,,,120.6000,0.0000,0.0000,12.0000,0.0000,0.0000,0
12.0400,0.07579,0.02040,9.82819,0.00889,0.00653,-0.00061,0,,,,120.8400,0.0000,0.0000,12.0000,0.0000,0.0000,0
12.0600,-0.04072,-0.10234,9.97537,-0.00302,-0.01007,0.01342,0,,,,121.0800,0.0000,0.0000,12.0000,0.0000,0.0000,0
12.0800,0.15465,0.13930,9.87539,-0.00541,0.00682,0.01005,0,,,,121.3200,0.0000,0.0000,12.0000,0.0000,0.0000,0
12.1000,-0.01598,0.10233,9.73389,0.00098,-0.00437,-0.00533,0,,,,121.5600,0.0000,0.0000,12.0000,0.0000,0.0000,0
12.1200,0.11137,0.00042,9.75776,-0.00877,-0.01545,0.01832,0,,,,121.8000,0.0000,0.0000,12.0000,0.0000,0.0000,0
12.1400,-0.02504,0.02336,9.73341,-0.00982,0.00838,0.00186,0,,,,122.0400,0.0000,0.0000,12.0000,0.0000,0.0000,0
12.1600,0.16443,-0.14492,9.94117,0.00405,0.00383,0.01075,0,,,,122.2800,0.0000,0.0000,12.0000,0.0000,0.0000,0
12.1800,0.11971,0.11406,9.89583,0.01732,-0.01026,0.00503,0,,,,122.5200,0.0000,0.0000,12.0000,0.0000,0.0000,0
12.2000,-0.02934,-0.09489,9.93642,0.00452,-0.00435,-0.00766,0,,,,122.7600,0.0000,0.0000,12.0000,0.0000,0.0000,0
12.2200,0.14208,-0.05375,9.82648,0.00309,0.00090,0.00921,0,,,,123.0000,0.0000,0.0000,12.0000,0.0000,0.0000,0
12.2400,-0.03250,-0.20709,9.79194,0.01779,-0.01138,0.00989,0,,,,123.2400,0.0000,0.0000,12.0000,0.0000,0.0000,0
12.2600,0.10292,-0.04611,9.76181,0.00649,-0.00191,0.00141,0,,,,123.4800,0.0000,0.0000,12.0000,0.0000,0.0000,0
12.2800,-0.14533,0.05572,9.65105,0.00542,0.01801,0.01580,0,,,,123.7200,0.0000,0.0000,12.0000,0.0000,0.0000,0
12.3000,0.16800,-0.13393,9.58742,-0.00858,0.00726,-0.00132,0,,,,123.9600,0.0000,0.0000,12.0000,0.0000,0.0000,0
12.3200,-0.04578,0.07298,9.71388,-0.00781,-0.00340,-0.00213,0,,,,124.2000,0.0000,0.0000,12.0000,0.0000,0.0000,0
12.3400,-0.03432,-0.21155,9.92828,0.00014,-0.00443,0.00978,0,,,,124.4400,0.0000,0.0000,12.0000,0.0000,0.0000,0
12.3600,0.08645,0.05290,9.99561,0.00735,-0.00418,0.00564,0,,,,124.6800,0.0000,0.0000,12.0000,0.0000,0.0000,0
12.3800,-0.11500,-0.17535,10.03606,0.00556,0.00064,0.00725,0,,,,124.9200,0.0000,0.0000,12.0000,0.0000,0.0000,0
12.4000,0.15782,0.06279,10.00199,0.00929,-0.00381,0.01610,0,,,,125.1600,0.0000,0.0000,12.0000,0.0000,0.0000,0
12.4200,-0.06149,0.02812,9.86418,0.00398,-0.00889,0.01061,0,,,,125.4000,0.0000,0.0000,12.0000,0.0000,0.0000,0
12.4400,0.37620,-0.11108,9.76987,-0.00157,-0.00690,0.01736,0,,,,125.6400,0.0000,0.0000,12.0000,0.0000,0.0000,0
12.4600,-0.09598,0.01955,9.60989,-0.00406,-0.01667,0.01005,0,,,,125.8800,0.0000,0.0000,12.0000,0.0000,0.0000,0
12.4800,0.30815,-0.17091,9.64116,0.00920,-0.00882,0.01539,0,,,,126.1200,0.0000,0.0000,12.0000,0.0000,0.0000,0
12.5000,0.01744,0.03945,9.84241,0.00806,-0.00482,0.00103,0,,,,126.3600,0.0000,0.0000,12.0000,0.0000,0.0000,0
12.5200,-0.02008,-0.24332,9.97056,-0.01229,-0.00655,0.01108,0,,,,126.6000,0.0000,0.0000,12.0000,0.0000,0.0000,0
12.5400,0.14639,0.10470,9.97121,0.01136,0.00440,0.00857,0,,,,126.8400,0.0000,0.0000,12.0000,0.0000,0.0000,0
12.5600,0.00562,-0.02106,9.91395,-0.00875,0.00036,0.00937,0,,,,127.0800,0.0000,0.0000,12.0000,0.0000,0.0000,0
12.5800,0.24700,-0.09737,9.79918,0.00568,-0.00357,-0.01009,0,,,,127.3200,0.0000,0.0000,12.0000,0.0000,0.0000,0
12.6000,-0.04412,-0.14111,9.71050,0.01281,0.01160,-0.00473,0,,,,127.5600,0.0000,0.0000,12.0000,0.0000,0.0000,0
12.6200,0.10611,-0.10308,9.88127,-0.00194,-0.00682,0.01739,0,,,,127.8000,0.0000,0.0000,12.0000,0.0000,0.0000,0
12.6400,-0.04779,0.13293,9.63716,0.00063,-0.01628,-0.00344,0,,,,128.0400,0.0000,0.0000,12.0000,0.0000,0.0000,0
12.6600,0.12218,-0.15305,9.80128,-0.00399,-0.00477,0.00741,0,,,,128.2800,0.0000,0.0000,12.0000,0.0000,0.0000,0
12.6800,0.14848,-0.12378,9.84792,0.00327,-0.00379,0.00823,0,,,,128.5200,0.0000,0.0000,12.0000,0.0000,0.0000,0
12.7000,-0.00913,-0.15147,9.92863,0.00004,0.00619,-0.00086,0,,,,128.7600,0.0000,0.0000,12.0000,0.0000,0.0000,0
12.7200,0.13629,0.04897,10.09006,-0.00040,0.00467,0.01486,0,,,,129.0000,0.0000,0.0000,12.0000,0.0000,0.0000,0
12.7400,-0.08297,-0.06934,9.87450,-0.00005,0.00383,0.00685,0,,,,129.2400,0.0000,0.0000,12.0000,0.0000,0.0000,0
12.7600,0.17670,-0.14250,9.73508,0.01915,-0.00442,-0.00120,0,,,,129.4800,0.0000,0.0000,12.0000,0.0000,0.0000,0
12.7800,0.05317,0.05684,9.79432,0.00090,-0.00555,0.00364,0,,,,129.7200,0.0000,0.0000,12.0000,0.0000,0.0000,0
12.8000,-0.00008,-0.13412,9.76621,0.01680,-0.00231,-0.01367,0,,,,129.9600,0.0000,0.0000,12.0000,0.0000,0.0000,0
12.8200,0.00264,0.30539,9.86815,-0.00449,0.00173,-0.00094,0,,,,130.2000,0.0000,0.0000,12.0000,0.0000,0.0000,0
12.8400,-0.08334,-0.17692,9.89381,-0.01298,-0.01219,0.00508,0,,,,130.4400,0.0000,0.0000,12.0000,0.0000,0.0000,0
12.8600,0.06516,0.10674,9.86080,0.00771,-0.01247,0.01814,0,,,,130.6800,0.0000,0.0000,12.0000,0.0000,0.0000,0
12.8800,-0.18972,-0.19390,10.00791,0.01531,-0.00048,0.00950,0,,,,130.9200,0.0000,0.0000,12.0000,0.0000,0.0000,0
12.9000,0.15553,-0.07503,9.88797,-0.00770,-0.01323,0.00821,0,,,,131.1600,0.0000,0.0000,12.0000,0.0000,0.0000,0
12.9200,-0.16962,0.00310,9.73746,0.00437,-0.00691,0.01625,0,,,,131.4000,0.0000,0.0000,12.0000,0.0000,0.0000,0
12.9400,0.17448,0.01777,9.70374,0.00245,-0.01085,0.00169,0,,,,131.6400,0.0000,0.0000,12.0000,0.0000,0.0000,0
12.9600,-0.06311,-0.00059,9.63965,-0.00931,-0.02172,-0.00345,0,,,,131.8800,0.0000,0.0000,12.0000,0.0000,0.0000,0
12.9800,0.13437,-0.26945,9.66505,0.01633,-0.00809,0.00757,0,,,,132.1200,0.0000,0.0000,12.0000,0.0000,0.0000,0
13.0000,0.09139,0.14300,9.73486,0.00015,-0.01595,0.02457,0,,,,132.3600,0.0000,0.0000,12.0000,0.0000,0.0000,0
13.0200,-0.13176,-0.22540,9.85555,-0.00997,0.00782,0.02438,0,,,,132.6000,0.0000,0.0000,12.0000,0.0000,0.0000,0
13.0400,0.08409,-0.04816,9.79746,0.00005,-0.00553,-0.00021,0,,,,132.8400,0.0000,0.0000,12.0000,0.0000,0.0000,0
13.0600,-0.05087,-0.04948,9.97496,-0.00053,-0.01181,0.01033,0,,,,133.0800,0.0000,0.0000,12.0000,0.0000,0.0000,0
13.0800,0.16076,0.04860,9.93490,-0.00937,-0.01447,-0.00104,0,,,,133.3200,0.0000,0.0000,12.0000,0.0000,0.0000,0
13.1000,-0.15863,0.06750,9.81422,0.01079,0.00017,0.00667,0,,,,133.5600,0.0000,0.0000,12.0000,0.0000,0.0000,0
13.1200,0.22844,-0.06891,9.74422,0.01384,-0.00208,0.00257,0,,,,133.8000,0.0000,0.0000,12.0000,0.0000,0.0000,0
13.1400,-0.08484,0.13140,9.85429,0.00160,0.00746,-0.01076,0,,,,134.0400,0.0000,0.0000,12.0000,0.0000,0.0000,0
13.1600,0.05060,-0.15226,9.76865,0.02107,-0.00353,0.00174,0,,,,134.2800,0.0000,0.0000,12.0000,0.0000,0.0000,0
13.1800,0.07192,-0.07400,9.85367,0.00987,-0.00803,-0.00163,0,,,,134.5200,0.0000,0.0000,12.0000,0.0000,0.0000,0
13.2000,0.07423,-0.01986,10.01214,-0.00164,-0.00492,-0.00143,0,,,,134.7600,0.0000,0.0000,12.0000,0.0000,0.0000,0
13.2200,0.06174,-0.04925,9.91578,-0.00628,-0.01551,0.00676,0,,,,135.0000,0.0000,0.0000,12.0000,0.0000,0.0000,0
13.2400,-0.05911,0.08358,9.84736,0.00437,-0.00050,0.00297,0,,,,135.2400,0.0000,0.0000,12.0000,0.0000,0.0000,0
13.2600,0.21742,0.00953,9.83867,-0.00005,-0.00586,-0.00594,0,,,,135.4800,0.0000,0.0000,12.0000,0.0000,0.0000,0
13.2800,-0.12579,-0.01546,9.65815,0.00552,0.00657,-0.00226,0,,,,135.7200,0.0000,0.0000,12.0000,0.0000,0.0000,0
13.3000,0.13321,-0.20981,9.71813,-0.00352,0.00182,-0.00043,0,,,,135.9600,0.0000,0.0000,12.0000,0.0000,0.0000,0
13.3200,0.09109,0.06657,9.74687,-0.00803,-0.00097,0.01216,0,,,,136.2000,0.0000,0.0000,12.0000,0.0000,0.0000,0
13.3400,0.04683,0.03005,10.00088,-0.00046,-0.00554,0.00876,0,,,,136.4400,0.0000,0.0000,12.0000,0.0000,0.0000,0
13.3600,0.03077,0.16846,9.98690,0.00405,0.00250,0.01878,0,,,,136.6800,0.0000,0.0000,12.0000,0.0000,0.0000,0
13.3800,-0.03879,-0.11553,10.09522,0.00974,-0.00557,0.00504,0,,,,136.9200,0.0000,0.0000,12.0000,0.0000,0.0000,0
13.4000,0.16976,0.03603,9.81866,-0.01034,-0.01010,-0.00272,0,,,,137.1600,0.0000,0.0000,12.0000,0.0000,0.0000,0
13.4200,-0.13127,0.02831,9.82810,0.00357,-0.01279,0.00131,0,,,,137.4000,0.0000,0.0000,12.0000,0.0000,0.0000,0
13.4400,0.19556,-0.03350,9.70622,0.00329,0.01459,0.00486,0,,,,137.6400,0.0000,0.0000,12.0000,0.0000,0.0000,0
13.4600,-0.09760,0.04358,9.74426,0.00079,-0.00325,-0.00655,0,,,,137.8800,0.0000,0.0000,12.0000,0.0000,0.0000,0
13.4800,0.00716,-0.15352,9.76128,-0.00253,-0.00442,0.00549,0,,,,138.1200,0.0000,0.0000,12.0000,0.0000,0.0000,0
13.5000,0.11115,0.08206,9.88858,-0.00233,0.00158,0.00801,0,,,,138.3600,0.0000,0.0000,12.0000,0.0000,0.0000,0
13.5200,0.06509,-0.08450,9.98589,0.00121,-0.00104,0.01351,0,,,,138.6000,0.0000,0.0000,12.0000,0.0000,0.0000,0
13.5400,0.06998,0.00720,9.99093,0.00532,-0.00959,0.00440,0,,,,138.8400,0.0000,0.0000,12.0000,0.0000,0.0000,0
13.5600,-0.07610,-0.25832,9.93154,0.00074,-0.00428,0.01633,0,,,,139.0800,0.0000,0.0000,12.0000,0.0000,0.0000,0
13.5800,0.06250,-0.08843,9.66271,-0.00185,-0.00617,0.00092,0,,,,139.3200,0.0000,0.0000,12.0000,0.0000,0.0000,0
13.6000,0.01449,0.07593,9.79234,-0.00096,0.00521,0.00484,0,,,,139.5600,0.0000,0.0000,12.0000,0.0000,0.0000,0
13.6200,0.06700,-0.24379,9.70347,0.00804,0.01521,0.00549,0,,,,139.8000,0.0000,0.0000,12.0000,0.0000,0.0000,0
13.6400,-0.07904,-0.01964,9.79949,-0.01212,0.00140,0.01154,0,,,,140.0400,0.0000,0.0000,12.0000,0.0000,0.0000,0
13.6600,0.08994,-0.16663,9.87200,0.00337,-0.00922,0.01980,0,,,,140.2800,0.0000,0.0000,12.0000,0.0000,0.0000,0
13.6800,0.04171,0.14829,9.72097,0.01221,0.00875,0.00524,0,,,,140.5200,0.0000,0.0000,12.0000,0.0000,0.0000,0
13.7000,0.01417,-0.08240,9.91935,0.00638,-0.00947,0.00013,0,,,,140.7600,0.0000,0.0000,12.0000,0.0000,0.0000,0
13.7200,0.23147,0.11227,9.90872,-0.00387,-0.00816,0.01086,0,,,,141.0000,0.0000,0.0000,12.0000,0.0000,0.0000,0
13.7400,-0.15787,-0.02395,9.96057,0.00129,0.00508,0.00257,0,,,,141.2400,0.0000,0.0000,12.0000,0.0000,0.0000,0
13.7600,0.14077,-0.13067,9.89385,-0.00413,-0.00020,0.00443,0,,,,141.4800,0.0000,0.0000,12.0000,0.0000,0.0000,0
13.7800,-0.14554,-0.01443,9.85870,0.00361,-0.01107,0.00744,0,,,,141.7200,0.0000,0.0000,12.0000,0.0000,0.0000,0
13.8000,0.09885,0.14924,9.76533,-0.00104,0.00836,-0.00973,0,,,,141.9600,0.0000,0.0000,12.0000,0.0000,0.0000,0
13.8200,0.01770,0.24578,9.78954,-0.01187,-0.00617,0.01664,0,,,,142.2000,0.0000,0.0000,12.0000,0.0000,0.0000,0
13.8400,0.05505,-0.21616,9.83167,-0.00248,-0.00011,0.01571,0,,,,142.4400,0.0000,0.0000,12.0000,0.0000,0.0000,0
13.8600,0.18200,0.11164,9.85144,-0.00862,0.00127,-0.00576,0,,,,142.6800,0.0000,0.0000,12.0000,0.0000,0.0000,0
13.8800,-0.07051,-0.08216,9.88352,-0.00619,-0.00375,0.00903,0,,,,142.9200,0.0000,0.0000,12.0000,0.0000,0.0000,0
13.9000,0.23905,0.05565,9.93308,-0.00397,-0.01157,0.00091,0,,,,143.1600,0.0000,0.0000,12.0000,0.0000,0.0000,0
13.9200,-0.04697,0.00446,9.67362,-0.00429,0.00664,0.00563,0,,,,143.4000,0.0000,0.0000,12.0000,0.0000,0.0000,0
13.9400,0.03522,0.10737,9.76187,0.00507,0.00020,0.00206,0,,,,143.6400,0.0000,0.0000,12.0000,0.0000,0.0000,0
13.9600,-0.10035,0.22721,9.81714,0.00858,0.00161,-0.00303,0,,,,143.8800,0.0000,0.0000,12.0000,0.0000,0.0000,0
13.9800,0.18638,-0.20902,9.79717,-0.01112,-0.01933,0.00755,0,,,,144.1200,0.0000,0.0000,12.0000,0.0000,0.0000,0
14.0000,-0.02473,-0.06913,9.89990,0.01896,0.00812,0.00294,0,,,,144.3600,0.0000,0.0000,12.0000,0.0000,0.0000,0
14.0200,-0.00347,-0.07056,10.02857,-0.00075,-0.00273,0.00740,0,,,,144.6000,0.0000,0.0000,12.0000,0.0000,0.0000,0
14.0400,0.16646,0.04683,9.96681,0.01304,0.00668,0.00882,0,,,,144.8400,0.0000,0.0000,12.0000,0.0000,0.0000,0
14.0600,0.06895,-0.11201,10.07895,0.00634,0.02317,-0.00454,0,,,,145.0800,0.0000,0.0000,12.0000,0.0000,0.0000,0
14.0800,0.10462,0.01104,9.90347,0.01760,-0.00835,0.01224,0,,,,145.3200,0.0000,0.0000,12.0000,0.0000,0.0000,0
14.1000,0.01887,0.06345,9.70924,0.01326,0.00683,0.00980,0,,,,145.5600,0.0000,0.0000,12.0000,0.0000,0.0000,0
14.1200,0.14881,-0.08840,9.73248,0.00713,-0.00275,-0.00179,0,,,,145.8000,0.0000,0.0000,12.0000,0.0000,0.0000,0
14.1400,-0.10170,0.01499,9.77310,0.00178,-0.00128,0.00901,0,,,,146.0400,0.0000,0.0000,12.0000,0.0000,0.0000,0
14.1600,0.00485,-0.03180,9.80539,-0.00147,0.00086,-0.00969,0,,,,146.2800,0.0000,0.0000,12.0000,0.0000,0.0000,0
14.1800,0.00660,0.16472,9.77547,0.01094,0.00909,0.00204,0,,,,146.5200,0.0000,0.0000,12.0000,0.0000,0.0000,0
14.2000,-0.00719,-0.03756,9.93343,0.00894,-0.00837,0.00118,0,,,,146.7600,0.0000,0.0000,12.0000,0.0000,0.0000,0
14.2200,0.07737,0.06171,10.05787,0.00053,-0.01317,-0.00366,0,,,,147.0000,0.0000,0.0000,12.0000,0.0000,0.0000,0
14.2400,-0.04631,0.09504,9.93232,-0.00110,0.00313,0.00308,0,,,,147.2400,0.0000,0.0000,12.0000,0.0000,0.0000,0
14.2600,0.12761,-0.12916,9.92515,-0.01831,0.00338,0.00129,0,,,,147.4800,0.0000,0.0000,12.0000,0.0000,0.0000,0
14.2800,-0.09415,0.16968,9.69094,-0.00344,-0.00404,0.00831,0,,,,147.7200,0.0000,0.0000,12.0000,0.0000,0.0000,0
14.3000,0.07519,-0.25299,9.67327,0.01225,-0.00240,0.00861,0,,,,147.9600,0.0000,0.0000,12.0000,0.0000,0.0000,0
14.3200,-0.01076,0.03347,9.93305,0.00049,-0.00655,0.01377,0,,,,148.2000,0.0000,0.0000,12.0000,0.0000,0.0000,0
14.3400,-0.03283,-0.19663,9.88731,0.00200,-0.00092,0.02173,0,,,,148.4400,0.0000,0.0000,12.0000,0.0000,0.0000,0
14.3600,0.12471,-0.11509,9.98407,0.00230,-0.00265,0.00697,0,,,,148.6800,0.0000,0.0000,12.0000,0.0000,0.0000,0
14.3800,-0.05476,-0.11070,10.02357,-0.00234,-0.01058,0.02919,0,,,,148.9200,0.0000,0.0000,12.0000,0.0000,0.0000,0
14.4000,0.09686,0.01509,9.80753,0.00293,-0.01047,0.00146,0,,,,149.1600,0.0000,0.0000,12.0000,0.0000,0.0000,0
14.4200,0.00384,0.01530,9.88708,-0.01217,0.01170,-0.00454,0,,,,149.4000,0.0000,0.0000,12.0000,0.0000,0.0000,0
14.4400,0.27086,0.00063,9.81038,-0.00484,-0.00179,0.00123,0,,,,149.6400,0.0000,0.0000,12.0000,0.0000,0.0000,0
14.4600,-0.03982,0.03749,9.57380,0.01097,-0.00365,0.00112,0,,,,149.8800,0.0000,0.0000,12.0000,0.0000,0.0000,0
14.4800,0.03935,-0.11290,9.70300,-0.01604,0.00026,0.00915,0,,,,150.1200,0.0000,0.0000,12.0000,0.0000,0.0000,0
14.5000,0.02403,-0.00183,9.86376,-0.00972,-0.01122,-0.00101,0,,,,150.3600,0.0000,0.0000,12.0000,0.0000,0.0000,0
14.5200,0.06334,-0.17058,9.90297,0.01764,-0.00018,0.00771,0,,,,150.6000,0.0000,0.0000,12.0000,0.0000,0.0000,0
14.5400,0.09257,0.00977,9.80150,0.00975,0.00059,0.00357,0,,,,150.8400,0.0000,0.0000,12.0000,0.0000,0.0000,0
14.5600,-0.07956,-0.02220,9.82473,-0.00272,-0.01209,0.01917,0,,,,151.0800,0.0000,0.0000,12.0000,0.0000,0.0000,0
14.5800,0.22982,-0.19868,9.75059,0.00094,-0.00678,-0.00560,0,,,,151.3200,0.0000,0.0000,12.0000,0.0000,0.0000,0
14.6000,0.08145,0.03209,9.82410,-0.00354,0.00278,0.00196,0,,,,151.5600,0.0000,0.0000,12.0000,0.0000,0.0000,0
14.6200,0.10979,-0.05761,9.60846,0.01478,-0.00154,0.01525,0,,,,151.8000,0.0000,0.0000,12.0000,0.0000,0.0000,0
14.6400,-0.10384,0.00130,9.66238,0.00400,-0.00247,0.00128,0,,,,152.0400,0.0000,0.0000,12.0000,0.0000,0.0000,0
14.6600,-0.02609,-0.25038,9.82293,-0.00172,-0.00848,0.01738,0,,,,152.2800,0.0000,0.0000,12.0000,0.0000,0.0000,0
14.6800,0.06326,0.18783,9.87180,0.00396,-0.00344,-0.00858,0,,,,152.5200,0.0000,0.0000,12.0000,0.0000,0.0000,0
14.7000,0.08373,-0.13789,10.03049,-0.00402,-0.00432,-0.00193,0,,,,152.7600,0.0000,0.0000,12.0000,0.0000,0.0000,0
14.7200,0.24020,0.05921,9.99459,0.01287,0.00625,0.01112,0,,,,153.0000,0.0000,0.0000,12.0000,0.0000,0.0000,0
14.7400,-0.19161,-0.10814,9.82051,0.00782,-0.00163,-0.00612,0,,,,153.2400,0.0000,0.0000,12.0000,0.0000,0.0000,0
14.7600,0.14277,-0.17201,9.80822,-0.01124,0.00123,0.00802,0,,,,153.4800,0.0000,0.0000,12.0000,0.0000,0.0000,0
14.7800,0.09132,0.10213,9.71424,0.00854,-0.01418,-0.00270,0,,,,153.7200,0.0000,0.0000,12.0000,0.0000,0.0000,0
14.8000,0.13719,-0.29974,9.73955,-0.00616,-0.00219,-0.00362,0,,,,153.9600,0.0000,0.0000,12.0000,0.0000,0.0000,0
14.8200,0.04410,0.08778,9.91087,0.00205,-0.00915,0.00302,0,,,,154.2000,0.0000,0.0000,12.0000,0.0000,0.0000,0
14.8400,-0.08258,-0.11656,9.93368,0.02175,-0.00797,0.00286,0,,,,154.4400,0.0000,0.0000,12.0000,0.0000,0.0000,0
14.8600,0.05175,0.09213,9.98850,0.00157,0.00569,0.00006,0,,,,154.6800,0.0000,0.0000,12.0000,0.0000,0.0000,0
14.8800,0.02643,-0.06341,9.97356,-0.00052,0.01641,-0.00154,0,,,,154.9200,0.0000,0.0000,12.0000,0.0000,0.0000,0
14.9000,0.17796,-0.05294,10.07003,0.00909,-0.00843,0.00910,0,,,,155.1600,0.0000,0.0000,12.0000,0.0000,0.0000,0
14.9200,-0.05915,-0.06380,9.90226,0.00511,-0.00127,0.00466,0,,,,155.4000,0.0000,0.0000,12.0000,0.0000,0.0000,0
14.9400,0.18306,-0.06274,9.76892,-0.00313,0.01055,-0.00340,0,,,,155.6400,0.0000,0.0000,12.0000,0.0000,0.0000,0
14.9600,-0.00793,0.03186,9.87765,-0.00523,-0.00888,-0.00276,0,,,,155.8800,0.0000,0.0000,12.0000,0.0000,0.0000,0
14.9800,0.11005,-0.25142,9.73622,-0.01522,-0.00108,0.00100,0,,,,156.1200,0.0000,0.0000,12.0000,0.0000,0.0000,0
15.0000,-0.07904,0.17685,9.75204,0.00838,-0.00861,0.01781,0,,,,156.3600,0.0000,0.0000,12.0000,0.0000,0.0000,0
15.0200,0.05579,-0.22222,9.86543,0.00684,-0.00510,0.00365,0,,,,156.6000,0.0000,0.0000,12.0000,0.0000,0.0000,0
15.0400,0.22392,-0.00242,9.98372,0.00964,0.00347,0.00372,0,,,,156.8400,0.0000,0.0000,12.0000,0.0000,0.0000,0
15.0600,-0.09169,-0.22020,9.86461,0.00455,-0.00410,0.00560,0,,,,157.0800,0.0000,0.0000,12.0000,0.0000,0.0000,0
15.0800,0.24290,-0.11745,9.85280,0.00351,-0.00863,0.01645,0,,,,157.3200,0.0000,0.0000,12.0000,0.0000,0.0000,0
15.1000,-0.00144,0.03029,9.92965,-0.00999,-0.00306,0.00793,0,,,,157.5600,0.0000,0.0000,12.0000,0.0000,0.0000,0
15.1200,0.05930,-0.08243,9.65025,0.00752,0.00546,0.00718,0,,,,157.8000,0.0000,0.0000,12.0000,0.0000,0.0000,0
15.1400,-0.16603,-0.00219,9.80051,0.00217,-0.02455,0.01494,0,,,,158.0400,0.0000,0.0000,12.0000,0.0000,0.0000,0
15.1600,0.06597,-0.21458,9.90640,-0.00342,-0.00851,0.00787,0,,,,158.2800,0.0000,0.0000,12.0000,0.0000,0.0000,0
15.1800,0.21233,0.21612,9.94324,0.00570,0.00333,-0.00506,0,,,,158.5200,0.0000,0.0000,12.0000,0.0000,0.0000,0
15.2000,0.02100,-0.18581,9.99626,0.00018,0.00101,0.00594,0,,,,158.7600,0.0000,0.0000,12.0000,0.0000,0.0000,0
15.2200,-0.10452,0.04861,10.01660,0.00557,-0.00382,0.01814,0,,,,159.0000,0.0000,0.0000,12.0000,0.0000,0.0000,0
15.2400,-0.05296,-0.01747,9.98438,0.00490,-0.01018,-0.01451,0,,,,159.2400,0.0000,0.0000,12.0000,0.0000,0.0000,0
15.2600,0.11970,0.00839,9.78423,0.00841,-0.00181,0.01530,0,,,,159.4800,0.0000,0.0000,12.0000,0.0000,0.0000,0
15.2800,-0.08494,0.07171,9.78854,0.01401,-0.01665,0.00133,0,,,,159.7200,0.0000,0.0000,12.0000,0.0000,0.0000,0
15.3000,0.17842,-0.00341,9.76173,-0.00034,0.00306,0.01195,0,,,,159.9600,0.0000,0.0000,12.0000,0.0000,0.0000,0
15.3200,-0.01862,0.11265,9.89328,0.01712,0.00294,0.00535,0,,,,160.2000,0.0000,0.0000,12.0000,0.0000,0.0000,0
15.3400,0.02063,-0.10446,9.87724,0.00352,-0.01146,0.01538,0,,,,160.4400,0.0000,0.0000,12.0000,0.0000,0.0000,0
15.3600,0.00660,0.04059,9.96578,0.01793,-0.00638,-0.00033,0,,,,160.6800,0.0000,0.0000,12.0000,0.0000,0.0000,0
15.3800,-0.09653,0.02622,9.74954,-0.00602,0.01885,0.00973,0,,,,160.9200,0.0000,0.0000,12.0000,0.0000,0.0000,0
15.4000,0.06565,0.00373,9.93258,0.00877,0.01172,0.00811,0,,,,161.1600,0.0000,0.0000,12.0000,0.0000,0.0000,0
15.4200,-0.12295,0.04050,9.78575,-0.00627,-0.01708,-0.00752,0,,,,161.4000,0.0000,0.0000,12.0000,0.0000,0.0000,0
15.4400,0.07686,-0.17532,9.78925,-0.00760,-0.02815,-0.00335,0,,,,161.6400,0.0000,0.0000,12.0000,0.0000,0.0000,0
15.4600,-0.07989,0.00904,9.85845,-0.00291,0.00405,0.00485,0,,,,161.8800,0.0000,0.0000,12.0000,0.0000,0.0000,0
15.4800,0.08079,-0.20840,9.76980,-0.00412,-0.00164,0.00311,0,,,,162.1200,0.0000,0.0000,12.0000,0.0000,0.0000,0
15.5000,-0.03557,0.16935,9.89080,-0.00158,-0.00184,0.00433,0,,,,162.3600,0.0000,0.0000,12.0000,0.0000,0.0000,0
15.5200,-0.07358,-0.13593,9.88911,-0.00556,-0.01598,0.00213,0,,,,162.6000,0.0000,0.0000,12.0000,0.0000,0.0000,0
15.5400,0.16750,0.00190,10.17807,0.00909,0.00743,0.01136,0,,,,162.8400,0.0000,0.0000,12.0000,0.0000,0.0000,0
15.5600,0.07965,-0.14405,9.74425,-0.00157,0.00147,0.00621,0,,,,163.0800,0.0000,0.0000,12.0000,0.0000,0.0000,0
15.5800,0.18180,0.08321,9.90225,0.00839,-0.01052,-0.00376,0,,,,163.3200,0.0000,0.0000,12.0000,0.0000,0.0000,0
15.6000,0.05500,0.01515,9.73626,-0.00297,-0.00819,-0.00067,0,,,,163.5600,0.0000,0.0000,12.0000,0.0000,0.0000,0
15.6200,0.02981,-0.22652,9.72318,-0.00274,0.00586,0.00734,0,,,,163.8000,0.0000,0.0000,12.0000,0.0000,0.0000,0
15.6400,0.00341,0.01571,9.74565,0.00489,0.00273,0.00425,0,,,,164.0400,0.0000,0.0000,12.0000,0.0000,0.0000,0
15.6600,0.14137,-0.14841,9.89023,-0.00192,-0.01750,0.00715,0,,,,164.2800,0.0000,0.0000,12.0000,0.0000,0.0000,0
15.6800,0.12787,0.13226,9.94824,-0.00079,-0.00945,0.00941,0,,,,164.5200,0.0000,0.0000,12.0000,0.0000,0.0000,0
15.7000,0.00358,-0.17195,10.05953,-0.00506,-0.00767,0.01809,0,,,,164.7600,0.0000,0.0000,12.0000,0.0000,0.0000,0
15.7200,0.21081,0.00566,9.98822,0.00324,-0.02496,-0.00225,0,,,,165.0000,0.0000,0.0000,12.0000,0.0000,0.0000,0
15.7400,-0.08194,-0.08101,9.92059,0.01104,-0.00557,-0.00346,0,,,,165.2400,0.0000,0.0000,12.0000,0.0000,0.0000,0
15.7600,0.18386,-0.07862,9.79999,-0.00033,0.01493,-0.01293,0,,,,165.4800,0.0000,0.0000,12.0000,0.0000,0.0000,0
15.7800,-0.09239,0.03400,9.68558,0.00920,0.00351,0.00462,0,,,,165.7200,0.0000,0.0000,12.0000,0.0000,0.0000,0
15.8000,0.08888,-0.13604,9.73414,0.00137,-0.00450,0.00702,0,,,,165.9600,0.0000,0.0000,12.0000,0.0000,0.0000,0
15.8200,0.07041,-0.01219,9.71479,-0.01199,0.00393,0.00700,0,,,,166.2000,0.0000,0.0000,12.0000,0.0000,0.0000,0
15.8400,0.06538,-0.26341,10.02929,-0.00287,-0.00165,0.01184,0,,,,166.4400,0.0000,0.0000,12.0000,0.0000,0.0000,0
15.8600,0.01885,0.03145,9.97230,0.02486,-0.00059,0.01785,0,,,,166.6800,0.0000,0.0000,12.0000,0.0000,0.0000,0
15.8800,0.04399,-0.07705,9.89539,0.01048,-0.01498,0.01781,0,,,,166.9200,0.0000,0.0000,12.0000,0.0000,0.0000,0
15.9000,0.17013,-0.20494,9.89994,0.00723,-0.00490,0.01072,0,,,,167.1600,0.0000,0.0000,12.0000,0.0000,0.0000,0
15.9200,-0.14777,-0.12694,9.83589,0.00225,-0.00579,0.01482,0,,,,167.4000,0.0000,0.0000,12.0000,0.0000,0.0000,0
15.9400,0.08056,-0.05604,9.76963,-0.01045,-0.01355,0.00510,0,,,,167.6400,0.0000,0.0000,12.0000,0.0000,0.0000,0
15.9600,0.11635,0.10382,9.59884,-0.02288,0.00286,0.00423,0,,,,167.8800,0.0000,0.0000,12.0000,0.0000,0.0000,0
15.9800,0.17548,-0.21203,9.80252,0.00877,-0.00658,0.00159,0,,,,168.1200,0.0000,0.0000,12.0000,0.0000,0.0000,0
16.0000,0.04202,0.13341,9.85550,0.00979,-0.00670,-0.00563,0,,,,168.3600,0.0000,0.0000,12.0000,0.0000,0.0000,0
16.0200,0.15398,-0.18994,9.89332,0.00147,-0.00246,0.00191,0,,,,168.6000,0.0000,0.0000,12.0000,0.0000,0.0000,0
16.0400,0.12075,0.05430,9.99040,-0.01686,0.01205,0.00382,0,,,,168.8400,0.0000,0.0000,12.0000,0.0000,0.0000,0
16.0600,-0.02213,-0.19134,9.91143,-0.00338,0.00876,0.00031,0,,,,169.0800,0.0000,0.0000,12.0000,0.0000,0.0000,0
16.0800,0.22041,-0.07450,9.83548,0.00004,0.00727,-0.01012,0,,,,169.3200,0.0000,0.0000,12.0000,0.0000,0.0000,0
16.1000,-0.17938,-0.14870,9.69912,-0.00449,-0.01592,-0.00087,0,,,,169.5600,0.0000,0.0000,12.0000,0.0000,0.0000,0
16.1200,-0.02872,-0.18793,9.83481,0.00523,-0.00150,-0.00302,0,,,,169.8000,0.0000,0.0000,12.0000,0.0000,0.0000,0
16.1400,-0.14070,-0.01598,9.75187,0.00895,0.00422,0.01004,0,,,,170.0400,0.0000,0.0000,12.0000,0.0000,0.0000,0
16.1600,-0.00396,-0.14709,9.80110,0.00039,0.01330,-0.00910,0,,,,170.2800,0.0000,0.0000,12.0000,0.0000,0.0000,0
16.1800,0.05107,0.18317,9.79719,-0.00315,-0.00723,0.00321,0,,,,170.5200,0.0000,0.0000,12.0000,0.0000,0.0000,0
16.2000,-0.15821,-0.07946,10.02408,0.00607,-0.00996,0.00569,0,,,,170.7600,0.0000,0.0000,12.0000,0.0000,0.0000,0
16.2200,0.06936,0.00769,10.13751,0.00277,-0.01250,0.00644,0,,,,171.0000,0.0000,0.0000,12.0000,0.0000,0.0000,0
16.2400,-0.18602,-0.14841,9.81754,-0.00155,0.00450,0.00963,0,,,,171.2400,0.0000,0.0000,12.0000,0.0000,0.0000,0
16.2600,0.19971,-0.14040,9.76917,0.00418,-0.00803,0.00277,0,,,,171.4800,0.0000,0.0000,12.0000,0.0000,0.0000,0
16.2800,-0.02601,0.00640,9.76616,0.01474,-0.00437,0.01443,0,,,,171.7200,0.0000,0.0000,12.0000,0.0000,0.0000,0
16.3000,0.15528,-0.24446,9.65435,-0.00467,-0.00984,0.00428,0,,,,171.9600,0.0000,0.0000,12.0000,0.0000,0.0000,0
16.3200,0.05933,0.18664,9.82349,-0.00157,-0.01966,0.00556,0,,,,172.2000,0.0000,0.0000,12.0000,0.0000,0.0000,0
16.3400,0.02702,-0.13442,10.05499,0.01192,0.00328,-0.00270,0,,,,172.4400,0.0000,0.0000,12.0000,0.0000,0.0000,0
16.3600,0.05677,0.06757,9.89594,0.00600,-0.00014,-0.00371,0,,,,172.6800,0.0000,0.0000,12.0000,0.0000,0.0000,0
16.3800,0.04328,-0.09831,9.83620,0.00159,-0.00075,0.01278,0,,,,172.9200,0.0000,0.0000,12.0000,0.0000,0.0000,0
16.4000,0.12713,0.07332,9.94216,-0.00852,-0.01432,0.01398,0,,,,173.1600,0.0000,0.0000,12.0000,0.0000,0.0000,0
16.4200,0.01592,0.00337,9.96127,0.01045,0.00247,-0.00229,0,,,,173.4000,0.0000,0.0000,12.0000,0.0000,0.0000,0
16.4400,0.28709,-0.03819,9.73332,-0.00335,-0.00095,-0.00837,0,,,,173.6400,0.0000,0.0000,12.0000,0.0000,0.0000,0
16.4600,0.01383,-0.01881,9.76654,-0.00217,-0.00512,-0.00106,0,,,,173.8800,0.0000,0.0000,12.0000,0.0000,0.0000,0
16.4800,0.07128,0.00958,9.88531,0.00484,-0.00320,0.01175,0,,,,174.1200,0.0000,0.0000,12.0000,0.0000,0.0000,0
16.5000,0.13040,0.02361,9.85045,-0.01258,0.00598,0.02152,0,,,,174.3600,0.0000,0.0000,12.0000,0.0000,0.0000,0
16.5200,0.00223,-0.31157,9.98751,-0.00523,-0.00831,0.01001,0,,,,174.6000,0.0000,0.0000,12.0000,0.0000,0.0000,0
16.5400,0.14251,0.01843,9.92444,0.00301,-0.00628,-0.00387,0,,,,174.8400,0.0000,0.0000,12.0000,0.0000,0.0000,0
16.5600,-0.09518,-0.05393,9.93486,-0.00931,0.00491,-0.01691,0,,,,175.0800,0.0000,0.0000,12.0000,0.0000,0.0000,0
16.5800,0.12405,-0.07208,9.88354,0.00649,0.00601,-0.00070,0,,,,175.3200,0.0000,0.0000,12.0000,0.0000,0.0000,0
16.6000,-0.02720,0.02275,9.64919,0.01720,-0.01451,0.00836,0,,,,175.5600,0.0000,0.0000,12.0000,0.0000,0.0000,0
16.6200,0.16366,-0.08444,9.69921,0.00862,-0.01548,0.00447,0,,,,175.8000,0.0000,0.0000,12.0000,0.0000,0.0000,0
16.6400,-0.06292,0.02097,9.78963,0.01062,-0.00575,0.01125,0,,,,176.0400,0.0000,0.0000,12.0000,0.0000,0.0000,0
16.6600,0.05902,-0.22047,9.80617,-0.00040,-0.00857,0.00843,0,,,,176.2800,0.0000,0.0000,12.0000,0.0000,0.0000,0
16.6800,0.08861,-0.04102,9.78234,0.00540,-0.00952,0.00742,0,,,,176.5200,0.0000,0.0000,12.0000,0.0000,0.0000,0
16.7000,0.03194,-0.22876,9.85785,0.01540,-0.00019,0.00165,0,,,,176.7600,0.0000,0.0000,12.0000,0.0000,0.0000,0
16.7200,0.06660,-0.00654,9.86998,0.00907,-0.00921,0.01375,0,,,,177.0000,0.0000,0.0000,12.0000,0.0000,0.0000,0
16.7400,-0.10992,-0.13595,9.86672,-0.01899,-0.00397,0.00364,0,,,,177.2400,0.0000,0.0000,12.0000,0.0000,0.0000,0
16.7600,0.22385,-0.20339,9.90542,0.00856,0.00702,0.00458,0,,,,177.4800,0.0000,0.0000,12.0000,0.0000,0.0000,0
16.7800,0.01979,-0.08340,9.80511,-0.00417,-0.01621,-0.00399,0,,,,177.7200,0.0000,0.0000,12.0000,0.0000,0.0000,0
16.8000,0.11098,-0.19303,9.77261,-0.01247,-0.02002,0.01598,0,,,,177.9600,0.0000,0.0000,12.0000,0.0000,0.0000,0
16.8200,0.08246,0.00229,9.79860,0.01016,0.00035,0.00619,0,,,,178.2000,0.0000,0.0000,12.0000,0.0000,0.0000,0
16.8400,0.11257,-0.20751,9.88899,0.00186,-0.00518,0.00188,0,,,,178.4400,0.0000,0.0000,12.0000,0.0000,0.0000,0
16.8600,0.10364,0.07791,9.87410,0.00841,-0.01081,0.00325,0,,,,178.6800,0.0000,0.0000,12.0000,0.0000,0.0000,0
16.8800,-0.07608,-0.07784,9.80500,0.00913,-0.00842,0.01476,0,,,,178.9200,0.0000,0.0000,12.0000,0.0000,0.0000,0
16.9000,0.11587,0.00317,10.08029,-0.00022,0.00691,0.00531,0,,,,179.1600,0.0000,0.0000,12.0000,0.0000,0.0000,0
16.9200,-0.04653,-0.01687,9.90944,-0.00348,-0.01087,-0.00011,0,,,,179.4000,0.0000,0.0000,12.0000,0.0000,0.0000,0
16.9400,0.15656,-0.09876,9.82101,0.01244,-0.01081,-0.00087,0,,,,179.6400,0.0000,0.0000,12.0000,0.0000,0.0000,0
16.9600,-0.15704,0.21991,9.76126,0.00584,-0.01372,0.00499,0,,,,179.8800,0.0000,0.0000,12.0000,0.0000,0.0000,0
16.9800,0.12491,-0.16179,9.86056,0.02049,-0.01058,-0.00318,0,,,,180.1200,0.0000,0.0000,12.0000,0.0000,0.0000,0
17.0000,-0.03022,0.21850,9.94004,0.00092,-0.00271,-0.00153,0,,,,180.3600,0.0000,0.0000,12.0000,0.0000,0.0000,0
17.0200,0.06703,-0.17197,9.91799,0.00687,-0.00450,0.00312,0,,,,180.6000,0.0000,0.0000,12.0000,0.0000,0.0000,0
17.0400,0.12299,0.12110,10.10813,0.00668,0.00343,0.00340,0,,,,180.8400,0.0000,0.0000,12.0000,0.0000,0.0000,0
17.0600,-0.12520,-0.02877,9.96281,-0.00938,-0.00562,0.00434,0,,,,181.0800,0.0000,0.0000,12.0000,0.0000,0.0000,0
17.0800,0.11893,0.09607,9.91008,0.01299,-0.00089,0.00565,0,,,,181.3200,0.0000,0.0000,12.0000,0.0000,0.0000,0
17.1000,-0.14905,0.00804,9.78716,-0.00894,-0.00732,0.00241,0,,,,181.5600,0.0000,0.0000,12.0000,0.0000,0.0000,0
17.1200,0.16554,-0.06958,9.69227,0.00575,-0.00446,-0.01796,0,,,,181.8000,0.0000,0.0000,12.0000,0.0000,0.0000,0
17.1400,-0.05659,0.16148,9.62079,0.00290,0.00968,-0.00108,0,,,,182.0400,0.0000,0.0000,12.0000,0.0000,0.0000,0
17.1600,0.05521,-0.25338,9.95699,0.00133,-0.00263,0.01583,0,,,,182.2800,0.0000,0.0000,12.0000,0.0000,0.0000,0
17.1800,0.12276,0.01618,9.86268,0.00596,-0.00799,-0.01194,0,,,,182.5200,0.0000,0.0000,12.0000,0.0000,0.0000,0
17.2000,-0.03479,-0.24550,10.10008,0.00341,-0.01024,-0.00059,0,,,,182.7600,0.0000,0.0000,12.0000,0.0000,0.0000,0
17.2200,-0.00983,-0.05366,10.04654,0.01985,0.00281,0.00426,0,,,,183.0000,0.0000,0.0000,12.0000,0.0000,0.0000,0
17.2400,-0.11243,-0.12901,10.06561,0.00049,0.01393,0.01615,0,,,,183.2400,0.0000,0.0000,12.0000,0.0000,0.0000,0
17.2600,0.01861,-0.10576,9.75895,0.00136,-0.00348,0.02897,0,,,,183.4800,0.0000,0.0000,12.0000,0.0000,0.0000,0
17.2800,-0.14750,0.05262,9.79739,0.00199,-0.00212,-0.00336,0,,,,183.7200,0.0000,0.0000,12.0000,0.0000,0.0000,0
17.3000,0.11905,-0.08617,9.76873,0.00656,0.00830,0.01250,0,,,,183.9600,0.0000,0.0000,12.0000,0.0000,0.0000,0
17.3200,0.01586,-0.00751,9.75084,0.00024,-0.00098,0.00117,0,,,,184.2000,0.0000,0.0000,12.0000,0.0000,0.0000,0
17.3400,-0.04990,-0.24411,9.75440,0.00012,-0.01476,-0.00300,0,,,,184.4400,0.0000,0.0000,12.0000,0.0000,0.0000,0
17.3600,0.06630,-0.03172,9.98835,0.00792,-0.00740,0.00150,0,,,,184.6800,0.0000,0.0000,12.0000,0.0000,0.0000,0
17.3800,-0.00947,-0.16361,9.91191,0.01157,0.00407,0.00981,0,,,,184.9200,0.0000,0.0000,12.0000,0.0000,0.0000,0
17.4000,0.22818,-0.15110,10.03549,0.00514,0.00509,0.00810,0,,,,185.1600,0.0000,0.0000,12.0000,0.0000,0.0000,0
17.4200,-0.07585,-0.04449,9.87098,-0.00049,0.00394,-0.00769,0,,,,185.4000,0.0000,0.0000,12.0000,0.0000,0.0000,0
17.4400,0.10525,0.08249,9.71410,0.00009,-0.01006,0.00769,0,,,,185.6400,0.0000,0.0000,12.0000,0.0000,0.0000,0
17.4600,-0.10105,0.04263,9.80480,-0.00359,0.00331,0.01158,0,,,,185.8800,0.0000,0.0000,12.0000,0.0000,0.0000,0
17.4800,0.16857,-0.13033,10.03381,0.01044,-0.00040,-0.00201,0,,,,186.1200,0.0000,0.0000,12.0000,0.0000,0.0000,0
17.5000,0.03224,0.20411,9.99341,0.01383,0.00328,-0.00505,0,,,,186.3600,0.0000,0.0000,12.0000,0.0000,0.0000,0
17.5200,0.03480,-0.24089,9.81980,0.00391,0.00119,0.01223,0,,,,186.6000,0.0000,0.0000,12.0000,0.0000,0.0000,0
17.5400,0.16192,0.10000,9.89764,0.00116,-0.01506,-0.01103,0,,,,186.8400,0.0000,0.0000,12.0000,0.0000,0.0000,0
17.5600,-0.00933,-0.14134,10.01891,0.01087,-0.00795,0.00972,0,,,,187.0800,0.0000,0.0000,12.0000,0.0000,0.0000,0
17.5800,0.10687,-0.17014,9.88155,-0.00177,-0.00652,0.02080,0,,,,187.3200,0.0000,0.0000,12.0000,0.0000,0.0000,0
17.6000,-0.19620,0.03771,9.70653,0.00927,-0.00061,0.00803,0,,,,187.5600,0.0000,0.0000,12.0000,0.0000,0.0000,0
17.6200,0.05687,-0.16774,9.81296,0.01617,0.00084,-0.00218,0,,,,187.8000,0.0000,0.0000,12.0000,0.0000,0.0000,0
17.6400,0.00930,0.26935,9.76352,0.01369,-0.00892,0.00466,0,,,,188.0400,0.0000,0.0000,12.0000,0.0000,0.0000,0
17.6600,0.10461,-0.11727,9.76550,-0.00448,0.00491,0.01453,0,,,,188.2800,0.0000,0.0000,12.0000,0.0000,0.0000,0
17.6800,0.19081,0.23054,9.92523,-0.00049,0.00781,0.01070,0,,,,188.5200,0.0000,0.0000,12.0000,0.0000,0.0000,0
17.7000,-0.10913,-0.20977,10.01013,0.00058,-0.00321,0.01358,0,,,,188.7600,0.0000,0.0000,12.0000,0.0000,0.0000,0
17.7200,0.20204,0.14069,9.81071,0.00403,0.00256,-0.00721,0,,,,189.0000,0.0000,0.0000,12.0000,0.0000,0.0000,0
17.7400,-0.13027,-0.11972,9.90256,0.01502,0.01318,-0.00151,0,,,,189.2400,0.0000,0.0000,12.0000,0.0000,0.0000,0
17.7600,0.20000,-0.00778,9.84349,0.00519,-0.00057,0.01850,0,,,,189.4800,0.0000,0.0000,12.0000,0.0000,0.0000,0
17.7800,0.02688,-0.05051,9.81173,0.00914,-0.00048,0.01405,0,,,,189.7200,0.0000,0.0000,12.0000,0.0000,0.0000,0
17.8000,0.12558,-0.11104,9.75222,-0.01415,-0.00364,-0.00035,0,,,,189.9600,0.0000,0.0000,12.0000,0.0000,0.0000,0
17.8200,-0.08476,0.20095,9.83918,0.00176,-0.00752,0.00737,0,,,,190.2000,0.0000,0.0000,12.0000,0.0000,0.0000,0
17.8400,0.10427,-0.21521,9.88611,0.00894,-0.01849,0.00454,0,,,,190.4400,0.0000,0.0000,12.0000,0.0000,0.0000,0
17.8600,0.06347,0.06445,9.91784,0.00310,0.01239,0.00241,0,,,,190.6800,0.0000,0.0000,12.0000,0.0000,0.0000,0
17.8800,-0.02912,0.05309,9.93052,0.01652,-0.00296,0.01926,0,,,,190.9200,0.0000,0.0000,12.0000,0.0000,0.0000,0
17.9000,0.21414,0.03165,9.92193,-0.00299,-0.00239,0.01218,0,,,,191.1600,0.0000,0.0000,12.0000,0.0000,0.0000,0
17.9200,-0.08081,-0.04779,9.82155,0.00994,0.00680,-0.00034,0,,,,191.4000,0.0000,0.0000,12.0000,0.0000,0.0000,0
17.9400,0.09509,-0.05074,9.88639,0.01117,-0.01301,0.00289,0,,,,191.6400,0.0000,0.0000,12.0000,0.0000,0.0000,0
17.9600,-0.11659,0.03608,9.86524,-0.00938,-0.01595,-0.00163,0,,,,191.8800,0.0000,0.0000,12.0000,0.0000,0.0000,0
17.9800,0.10716,-0.09191,9.80950,0.01141,-0.01710,0.01451,0,,,,192.1200,0.0000,0.0000,12.0000,0.0000,0.0000,0
18.0000,-2.98497,0.14852,9.75078,0.00204,-0.00111,0.01425,0,,,,192.3588,0.0000,0.0000,11.9400,0.0000,0.0000,0
18.0200,-3.13100,-0.13911,9.85198,0.00604,0.00322,0.01530,0,,,,192.5964,0.0000,0.0000,11.8800,0.0000,0.0000,0
18.0400,-2.92066,0.13165,10.08529,-0.01115,0.00190,0.01267,0,,,,192.8328,0.0000,0.0000,11.8200,0.0000,0.0000,0
18.0600,-3.08928,-0.17796,10.02455,-0.00760,-0.00443,0.00468,0,,,,193.0680,0.0000,0.0000,11.7600,0.0000,0.0000,0
18.0800,-2.78299,-0.07260,9.81692,0.00279,0.00505,0.02330,0,,,,193.3020,0.0000,0.0000,11.7000,0.0000,0.0000,0
18.1000,-3.19473,0.03231,9.69919,0.01015,-0.01051,-0.00040,0,,,,193.5348,0.0000,0.0000,11.6400,0.0000,0.0000,0
18.1200,-2.91468,-0.11259,9.76463,0.00587,-0.00305,-0.00564,0,,,,193.7664,0.0000,0.0000,11.5800,0.0000,0.0000,0
18.1400,-2.95959,0.07092,9.84827,-0.00366,-0.01582,0.00473,0,,,,193.9968,0.0000,0.0000,11.5200,0.0000,0.0000,0
18.1600,-2.84128,-0.13618,9.81083,-0.00496,0.01106,-0.00324,0,,,,194.2260,0.0000,0.0000,11.4600,0.0000,0.0000,0
18.1800,-2.98819,0.13183,9.76598,0.01220,0.00199,0.01219,0,,,,194.4540,0.0000,0.0000,11.4000,0.0000,0.0000,0
18.2000,-2.98588,-0.13997,9.88572,0.00088,-0.01080,0.00889,0,,,,194.6808,0.0000,0.0000,11.3400,0.0000,0.0000,0
18.2200,-2.79414,0.15244,9.99497,0.00940,-0.00538,0.00117,0,,,,194.9064,0.0000,0.0000,11.2800,0.0000,0.0000,0
18.2400,-3.03998,-0.08340,9.92236,-0.00649,-0.01005,0.01008,0,,,,195.1308,0.0000,0.0000,11.2200,0.0000,0.0000,0
18.2600,-2.77119,-0.13134,9.86612,-0.00226,-0.00287,0.01634,0,,,,195.3540,0.0000,0.0000,11.1600,0.0000,0.0000,0
18.2800,-2.99672,0.09797,9.90077,-0.00363,-0.01089,-0.00078,0,,,,195.5760,0.0000,0.0000,11.1000,0.0000,0.0000,0
18.3000,-2.90983,-0.31545,9.72593,-0.00236,0.00327,0.00782,0,,,,195.7968,0.0000,0.0000,11.0400,0.0000,0.0000,0
18.3200,-3.03790,0.13343,9.85670,-0.00415,-0.00694,-0.01280,0,,,,196.0164,0.0000,0.0000,10.9800,0.0000,0.0000,0
18.3400,-3.06229,-0.20845,9.89243,-0.00556,-0.00711,-0.00480,0,,,,196.2348,0.0000,0.0000,10.9200,0.0000,0.0000,0
18.3600,-2.88850,0.10921,9.99016,0.00210,-0.01533,0.00004,0,,,,196.4520,0.0000,0.0000,10.8600,0.0000,0.0000,0
18.3800,-3.08505,-0.13875,9.98052,0.01340,0.00350,-0.00290,0,,,,196.6680,0.0000,0.0000,10.8000,0.0000,0.0000,0
18.4000,-2.79160,0.05831,9.86270,0.00879,-0.00428,-0.00628,0,,,,196.8828,0.0000,0.0000,10.7400,0.0000,0.0000,0
18.4200,-3.04335,-0.00511,9.82340,0.00170,-0.00875,0.00988,0,,,,197.0964,0.0000,0.0000,10.6800,0.0000,0.0000,0
18.4400,-2.85490,-0.06778,9.79276,-0.00724,-0.01015,-0.01268,0,,,,197.3088,0.0000,0.0000,10.6200,0.0000,0.0000,0
18.4600,-2.99697,-0.03950,9.74749,0.00497,0.00182,-0.00463,0,,,,197.5200,0.0000,0.0000,10.5600,0.0000,0.0000,0
18.4800,-2.92104,-0.00795,9.91165,0.00990,-0.00030,-0.00304,0,,,,197.7300,0.0000,0.0000,10.5000,0.0000,0.0000,0
18.5000,-2.90251,0.07736,9.90149,-0.00306,-0.00438,0.00631,0,,,,197.9388,0.0000,0.0000,10.4400,0.0000,0.0000,0
18.5200,-2.98447,-0.10208,9.89246,-0.00875,0.01000,0.02491,0,,,,198.1464,0.0000,0.0000,10.3800,0.0000,0.0000,0
18.5400,-2.84206,-0.04844,9.91456,0.00607,0.00773,-0.00470,0,,,,198.3528,0.0000,0.0000,10.3200,0.0000,0.0000,0
18.5600,-3.07853,-0.06542,10.01828,-0.00075,-0.01551,0.00997,0,,,,198.5580,0.0000,0.0000,10.2600,0.0000,0.0000,0
18.5800,-2.75025,-0.02907,9.90411,-0.00180,-0.00977,0.01321,0,,,,198.7620,0.0000,0.0000,10.2000,0.0000,0.0000,0
18.6000,-3.04313,0.04631,9.90628,-0.00644,-0.00742,0.00626,0,,,,198.9648,0.0000,0.0000,10.1400,0.0000,0.0000,0
18.6200,-2.91268,-0.04384,9.72378,-0.00594,-0.00247,0.00636,0,,,,199.1664,0.0000,0.0000,10.0800,0.0000,0.0000,0
18.6400,-2.94304,0.10661,9.79222,0.00456,-0.00451,-0.00073,0,,,,199.3668,0.0000,0.0000,10.0200,0.0000,0.0000,0
18.6600,-2.92185,-0.17570,9.96199,0.01274,0.00206,0.00803,0,,,,199.5660,0.0000,0.0000,9.9600,0.0000,0.0000,0
18.6800,-2.93719,-0.01466,9.89717,0.00281,-0.00116,0.00876,0,,,,199.7640,0.0000,0.0000,9.9000,0.0000,0.0000,0
18.7000,-2.95683,-0.18245,9.91613,0.01361,0.00317,0.00187,0,,,,199.9608,0.0000,0.0000,9.8400,0.0000,0.0000,0
18.7200,-2.86726,0.02608,9.96776,0.00578,0.01728,0.00652,0,,,,200.1564,0.0000,0.0000,9.7800,0.0000,0.0000,0
18.7400,-3.02487,-0.18740,9.86203,0.01183,0.00022,-0.03011,0,,,,200.3508,0.0000,0.0000,9.7200,0.0000,0.0000,0
18.7600,-2.78820,0.10097,9.65280,0.01416,-0.02518,0.01250,0,,,,200.5440,0.0000,0.0000,9.6600,0.0000,0.0000,0
18.7800,-3.06201,-0.15370,9.78376,0.01121,-0.00009,0.00968,0,,,,200.7360,0.0000,0.0000,9.6000,0.0000,0.0000,0
18.8000,-2.92240,-0.27599,9.79787,0.01600,0.00604,-0.01090,0,,,,200.9268,0.0000,0.0000,9.5400,0.0000,0.0000,0
18.8200,-3.11103,0.01855,9.67140,0.00235,0.00015,-0.00644,0,,,,201.1164,0.0000,0.0000,9.4800,0.0000,0.0000,0
18.8400,-2.91287,-0.10097,9.84264,0.00062,-0.01860,0.00234,0,,,,201.3048,0.0000,0.0000,9.4200,0.0000,0.0000,0
18.8600,-2.90160,0.08866,9.98828,0.00395,-0.00511,0.00729,0,,,,201.4920,0.0000,0.0000,9.3600,0.0000,0.0000,0
18.8800,-2.97230,-0.11413,9.99993,0.00051,-0.00817,0.00918,0,,,,201.6780,0.0000,0.0000,9.3000,0.0000,0.0000,0
18.9000,-2.89029,0.03797,9.92944,-0.00043,-0.00563,0.00094,0,,,,201.8628,0.0000,0.0000,9.2400,0.0000,0.0000,0
18.9200,-3.21143,0.00817,9.86013,0.00880,-0.00725,0.02016,0,,,,202.0464,0.0000,0.0000,9.1800,0.0000,0.0000,0
18.9400,-2.88180,-0.15110,9.68469,-0.01187,0.00926,0.01597,0,,,,202.2288,0.0000,0.0000,9.1200,0.0000,0.0000,0
18.9600,-2.99409,-0.01421,9.88179,-0.00081,-0.00515,0.01650,0,,,,202.4100,0.0000,0.0000,9.0600,0.0000,0.0000,0
18.9800,-2.86311,0.03452,9.79440,-0.00118,-0.00789,-0.00978,0,,,,202.5900,0.0000,0.0000,9.0000,0.0000,0.0000,0
19.0000,-2.98229,0.18157,9.90456,0.00216,-0.01096,0.00681,0,,,,202.7688,0.0000,0.0000,8.9400,0.0000,0.0000,0
19.0200,-2.92315,-0.10712,9.95213,-0.00438,0.00394,-0.02006,0,,,,202.9464,0.0000,0.0000,8.8800,0.0000,0.0000,0
19.0400,-2.84723,0.26310,9.85574,0.00007,-0.00306,0.00130,0,,,,203.1228,0.0000,0.0000,8.8200,0.0000,0.0000,0
19.0600,-2.98567,-0.04330,9.96130,0.00838,-0.00287,0.03044,0,,,,203.2980,0.0000,0.0000,8.7600,0.0000,0.0000,0
19.0800,-2.82813,-0.00684,9.73485,-0.00235,0.00618,-0.00568,0,,,,203.4720,0.0000,0.0000,8.7000,0.0000,0.0000,0
19.1000,-3.24673,0.00967,9.89578,0.00234,-0.00569,-0.00987,0,,,,203.6448,0.0000,0.0000,8.6400,0.0000,0.0000,0
19.1200,-2.83136,-0.05359,9.59624,0.01108,0.00313,0.01406,0,,,,203.8164,0.0000,0.0000,8.5800,0.0000,0.0000,0
19.1400,-2.97113,0.12745,9.79699,0.00895,-0.01755,-0.00701,0,,,,203.9868,0.0000,0.0000,8.5200,0.0000,0.0000,0
19.1600,-3.00384,-0.15944,9.85786,0.00460,0.00594,0.01419,0,,,,204.1560,0.0000,0.0000,8.4600,0.0000,0.0000,0
19.1800,-2.99995,0.10532,9.84663,0.00049,-0.00043,-0.02227,0,,,,204.3240,0.0000,0.0000,8.4000,0.0000,0.0000,0
19.2000,-2.83763,-0.08177,9.92312,0.01742,-0.00578,0.00606,0,,,,204.4908,0.0000,0.0000,8.3400,0.0000,0.0000,0
19.2200,-2.89765,0.16646,9.95683,0.00320,0.00663,0.00968,0,,,,204.6564,0.0000,0.0000,8.2800,0.0000,0.0000,0
19.2400,-3.08222,0.03635,10.10390,0.00454,-0.00207,0.00637,0,,,,204.8208,0.0000,0.0000,8.2200,0.0000,0.0000,0
19.2600,-2.73729,-0.10042,9.79021,-0.01030,-0.01247,0.00086,0,,,,204.9840,0.0000,0.0000,8.1600,0.0000,0.0000,0
19.2800,-3.06579,0.17583,9.79095,-0.00530,-0.00882,0.01600,0,,,,205.1460,0.0000,0.0000,8.1000,0.0000,0.0000,0
19.3000,-2.79934,-0.12483,9.70712,0.01100,-0.01095,0.00814,0,,,,205.3068,0.0000,0.0000,8.0400,0.0000,0.0000,0
19.3200,-2.80803,0.10266,9.73679,0.00528,-0.00676,-0.00615,0,,,,205.4664,0.0000,0.0000,7.9800,0.0000,0.0000,0
19.3400,-2.91896,-0.05963,9.86162,-0.00102,-0.01069,0.00380,0,,,,205.6248,0.0000,0.0000,7.9200,0.0000,0.0000,0
19.3600,-2.94718,-0.00573,10.10934,0.00573,0.00158,0.01207,0,,,,205.7820,0.0000,0.0000,7.8600,0.0000,0.0000,0
19.3800,-2.99078,-0.13954,9.99633,-0.00015,0.00051,0.00773,0,,,,205.9380,0.0000,0.0000,7.8000,0.0000,0.0000,0
19.4000,-2.87649,-0.09926,9.93888,0.00037,-0.01812,0.00906,0,,,,206.0928,0.0000,0.0000,7.7400,0.0000,0.0000,0
19.4200,-3.00254,0.17980,9.81031,-0.00231,-0.01188,0.00667,0,,,,206.2464,0.0000,0.0000,7.6800,0.0000,0.0000,0
19.4400,-2.83524,-0.14600,9.75019,-0.01383,0.00441,-0.00117,0,,,,206.3988,0.0000,0.0000,7.6200,0.0000,0.0000,0
19.4600,-3.04492,-0.05666,9.69030,-0.00024,-0.00309,0.00884,0,,,,206.5500,0.0000,0.0000,7.5600,0.0000,0.0000,0
19.4800,-2.80070,-0.08296,9.85148,0.01357,0.00156,0.00471,0,,,,206.7000,0.0000,0.0000,7.5000,0.0000,0.0000,0
19.5000,-2.87927,0.17584,9.90854,-0.00964,-0.00973,0.00280,0,,,,206.8488,0.0000,0.0000,7.4400,0.0000,0.0000,0
19.5200,-2.94181,-0.14328,10.02975,0.01252,0.00659,0.01464,0,,,,206.9964,0.0000,0.0000,7.3800,0.0000,0.0000,0
19.5400,-2.96081,0.09609,9.92781,-0.01119,-0.00530,0.01560,0,,,,207.1428,0.0000,0.0000,7.3200,0.0000,0.0000,0
19.5600,-3.03172,0.08033,9.96329,0.02158,-0.00158,0.00518,0,,,,207.2880,0.0000,0.0000,7.2600,0.0000,0.0000,0
19.5800,-2.94259,0.06638,9.83152,-0.00318,0.00725,0.01427,0,,,,207.4320,0.0000,0.0000,7.2000,0.0000,0.0000,0
19.6000,-2.98356,-0.02189,9.78204,0.00152,0.00326,0.01743,0,,,,207.5748,0.0000,0.0000,7.1400,0.0000,0.0000,0
19.6200,-2.83809,0.05150,9.81055,0.00012,0.00363,0.01865,0,,,,207.7164,0.0000,0.0000,7.0800,0.0000,0.0000,0
19.6400,-2.85795,0.17011,9.75738,0.00027,0.00161,0.01839,0,,,,207.8568,0.0000,0.0000,7.0200,0.0000,0.0000,0
19.6600,-2.91026,-0.11269,9.83092,-0.00062,-0.00430,0.00608,0,,,,207.9960,0.0000,0.0000,6.9600,0.0000,0.0000,0
19.6800,-2.79271,0.06705,9.91867,-0.00492,0.00273,0.01593,0,,,,208.1340,0.0000,0.0000,6.9000,0.0000,0.0000,0
19.7000,-2.90057,-0.11081,10.01673,0.00077,0.00122,0.00751,0,,,,208.2708,0.0000,0.0000,6.8400,0.0000,0.0000,0
19.7200,-2.85402,0.04532,10.00138,-0.00035,-0.00494,0.01866,0,,,,208.4064,0.0000,0.0000,6.7800,0.0000,0.0000,0
19.7400,-2.86103,-0.14884,9.80007,-0.00566,-0.00383,0.01217,0,,,,208.5408,0.0000,0.0000,6.7200,0.0000,0.0000,0
19.7600,-2.79483,-0.03872,9.85479,-0.00354,-0.00495,0.00484,0,,,,208.6740,0.0000,0.0000,6.6600,0.0000,0.0000,0
19.7800,-3.18806,-0.05861,9.65835,0.00811,-0.00104,0.00989,0,,,,208.8060,0.0000,0.0000,6.6000,0.0000,0.0000,0
19.8000,-3.03664,-0.24577,9.79558,-0.02023,0.00680,-0.00959,0,,,,208.9368,0.0000,0.0000,6.5400,0.0000,0.0000,0
19.8200,-2.92238,0.01514,9.88275,0.02767,-0.02119,0.01056,0,,,,209.0664,0.0000,0.0000,6.4800,0.0000,0.0000,0
19.8400,-3.11969,-0.11491,9.86995,0.00304,-0.01029,0.01124,0,,,,209.1948,0.0000,0.0000,6.4200,0.0000,0.0000,0
19.8600,-3.01806,0.17449,9.92523,-0.00922,0.00976,0.00446,0,,,,209.3220,0.0000,0.0000,6.3600,0.0000,0.0000,0
19.8800,-2.89985,-0.00878,9.91067,0.00132,-0.00203,0.01721,0,,,,209.4480,0.0000,0.0000,6.3000,0.0000,0.0000,0
19.9000,-2.81087,0.02119,9.91119,0.00160,0.00744,0.00503,0,,,,209.5728,0.0000,0.0000,6.2400,0.0000,0.0000,0
19.9200,-3.11136,-0.06763,9.79731,-0.00922,-0.00900,0.01699,0,,,,209.6964,0.0000,0.0000,6.1800,0.0000,0.0000,0
19.9400,-2.86795,-0.02474,9.56589,0.00655,-0.00429,0.00115,0,,,,209.8188,0.0000,0.0000,6.1200,0.0000,0.0000,0
19.9600,-3.02767,0.01781,9.56698,0.00938,-0.00106,0.00249,0,,,,209.9400,0.0000,0.0000,6.0600,0.0000,0.0000,0
19.9800,-2.99312,-0.25916,9.79242,0.01491,-0.00137,-0.00606,0,,,,210.0600,0.0000,0.0000,6.0000,0.0000,0.0000,0
20.0000,-2.94199,0.08573,9.92577,0.00685,-0.02689,0.00936,0,,,,210.1788,0.0000,0.0000,5.9400,0.0000,0.0000,0
20.0200,-3.08445,-0.25531,9.92372,0.00529,-0.01613,0.01064,0,,,,210.2964,0.0000,0.0000,5.8800,0.0000,0.0000,0
20.0400,-2.81679,0.06123,9.90700,-0.00584,0.00521,-0.00709,0,,,,210.4128,0.0000,0.0000,5.8200,0.0000,0.0000,0
20.0600,-2.98342,-0.09431,9.94144,-0.01166,-0.00417,0.00991,0,,,,210.5280,0.0000,0.0000,5.7600,0.0000,0.0000,0
20.0800,-2.94715,0.01743,9.87881,-0.00315,0.00384,-0.01262,0,,,,210.6420,0.0000,0.0000,5.7000,0.0000,0.0000,0
20.1000,-3.04639,0.13664,9.90131,0.00512,-0.00541,-0.00009,0,,,,210.7548,0.0000,0.0000,5.6400,0.0000,0.0000,0
20.1200,-2.89177,-0.06299,9.67420,0.00806,0.01407,0.00450,0,,,,210.8664,0.0000,0.0000,5.5800,0.0000,0.0000,0
20.1400,-3.12536,-0.03242,9.81746,0.00152,0.00401,0.00073,0,,,,210.9768,0.0000,0.0000,5.5200,0.0000,0.0000,0
20.1600,-2.87851,-0.16172,9.76821,-0.00121,-0.01258,0.02091,0,,,,211.0860,0.0000,0.0000,5.4600,0.0000,0.0000,0
20.1800,-2.93787,0.13779,9.87151,-0.00642,-0.00487,0.01381,0,,,,211.1940,0.0000,0.0000,5.4000,0.0000,0.0000,0
20.2000,-3.07219,-0.19672,9.98321,0.00599,0.01014,0.00783,0,,,,211.3008,0.0000,0.0000,5.3400,0.0000,0.0000,0
20.2200,-2.80716,0.09184,9.87299,-0.00571,-0.01167,-0.00566,0,,,,211.4064,0.0000,0.0000,5.2800,0.0000,0.0000,0
20.2400,-3.01424,-0.02928,9.90718,-0.01874,0.01344,-0.00215,0,,,,211.5108,0.0000,0.0000,5.2200,0.0000,0.0000,0
20.2600,-2.67798,-0.16843,9.74748,-0.01562,-0.00010,-0.00381,0,,,,211.6140,0.0000,0.0000,5.1600,0.0000,0.0000,0
20.2800,-3.14716,-0.07550,9.81026,0.00769,0.01150,-0.00049,0,,,,211.7160,0.0000,0.0000,5.1000,0.0000,0.0000,0
20.3000,-2.87196,-0.23023,9.71572,-0.00215,0.00072,0.01314,0,,,,211.8168,0.0000,0.0000,5.0400,0.0000,0.0000,0
20.3200,-2.91056,0.01880,9.87872,0.00165,-0.00560,-0.00067,0,,,,211.9164,0.0000,0.0000,4.9800,0.0000,0.0000,0
20.3400,-3.01983,-0.00967,9.91109,0.00340,-0.00510,0.02457,0,,,,212.0148,0.0000,0.0000,4.9200,0.0000,0.0000,0
20.3600,-2.79779,0.01747,9.93608,0.00029,-0.00183,-0.00061,0,,,,212.1120,0.0000,0.0000,4.8600,0.0000,0.0000,0
20.3800,-3.01736,0.00968,9.86943,-0.00703,-0.00687,0.00151,0,,,,212.2080,0.0000,0.0000,4.8000,0.0000,0.0000,0
20.4000,-2.68600,0.08722,10.00273,-0.00011,-0.00529,-0.00661,0,,,,212.3028,0.0000,0.0000,4.7400,0.0000,0.0000,0
20.4200,-3.01722,0.01682,9.94449,0.00031,-0.00413,0.00636,0,,,,212.3964,0.0000,0.0000,4.6800,0.0000,0.0000,0
20.4400,-2.78007,-0.19871,9.82307,0.00184,-0.01147,-0.01168,0,,,,212.4888,0.0000,0.0000,4.6200,0.0000,0.0000,0
20.4600,-3.05306,0.17329,9.87086,0.00484,0.01270,0.00466,0,,,,212.5800,0.0000,0.0000,4.5600,0.0000,0.0000,0
20.4800,-2.83956,-0.17767,9.73334,-0.00342,-0.01948,0.01530,0,,,,212.6700,0.0000,0.0000,4.5000,0.0000,0.0000,0
20.5000,-3.01133,0.02588,9.76225,0.00037,0.01111,0.02175,0,,,,212.7588,0.0000,0.0000,4.4400,0.0000,0.0000,0
20.5200,-3.13704,-0.16993,9.85605,0.00991,-0.00071,-0.00009,0,,,,212.8464,0.0000,0.0000,4.3800,0.0000,0.0000,0
20.5400,-2.87205,0.01928,10.10555,0.00638,0.00236,-0.01634,0,,,,212.9328,0.0000,0.0000,4.3200,0.0000,0.0000,0
20.5600,-3.07392,0.08556,10.05520,-0.01278,-0.00551,-0.00461,0,,,,213.0180,0.0000,0.0000,4.2600,0.0000,0.0000,0
20.5800,-2.70335,-0.00292,9.81027,0.00227,-0.02386,-0.00368,0,,,,213.1020,0.0000,0.0000,4.2000,0.0000,0.0000,0
